Time,Header.seq,Header.stamp.secs,Header.stamp.nsecs,Header.frame_id,IMU.header.seq,IMU.header.stamp.secs,IMU.header.stamp.nsecs,IMU.header.frame_id,IMU.orientation.x,IMU.orientation.y,IMU.orientation.z,IMU.orientation.w,IMU.orientation_covariance,IMU.angular_velocity.x,IMU.angular_velocity.y,IMU.angular_velocity.z,IMU.angular_velocity_covariance,IMU.linear_acceleration.x,IMU.linear_acceleration.y,IMU.linear_acceleration.z,IMU.linear_acceleration_covariance,MagField.header.seq,MagField.header.stamp.secs,MagField.header.stamp.nsecs,MagField.header.frame_id,MagField.magnetic_field.x,MagField.magnetic_field.y,MagField.magnetic_field.z,MagField.magnetic_field_covariance,imu_string
1711642272.2088752,0,1711642272,208499670,imu1_frame,0,0,0,,-0.572870556,-0.765151053,-0.109236379,0.27281972993818404,"(0.0, 0.0, 0.0, 0.0, 0.0, 0.0, 0.0, 0.0, 0.0)",-0.029742,-0.006881,-0.2274,"(0.0, 0.0, 0.0, 0.0, 0.0, 0.0, 0.0, 0.0, 0.0)",-1.251,-0.63,-9.53,"(0.0, 0.0, 0.0, 0.0, 0.0, 0.0, 0.0, 0.0, 0.0)",0,0,0,,-0.1927,0.2142,-0.3192,"(0.0, 0.0, 0.0, 0.0, 0.0, 0.0, 0.0, 0.0, 0.0)","$VNYMR,-076.735,-002.568,+000.174,-00.1927,+00.2142,-00.3192,-01.251,-00.630,-09.530,-00.029742,-00.006881,-00.227401*66\r\n'"
1711642272.2345498,0,1711642272,234098672,imu1_frame,0,0,0,,-0.696311186,-0.656226662,-0.157653509,0.24425943337159126,"(0.0, 0.0, 0.0, 0.0, 0.0, 0.0, 0.0, 0.0, 0.0)",-0.023032,-0.007301,-0.23363,"(0.0, 0.0, 0.0, 0.0, 0.0, 0.0, 0.0, 0.0, 0.0)",-1.051,-0.762,-9.544,"(0.0, 0.0, 0.0, 0.0, 0.0, 0.0, 0.0, 0.0, 0.0)",0,0,0,,-0.195,0.2179,-0.3234,"(0.0, 0.0, 0.0, 0.0, 0.0, 0.0, 0.0, 0.0, 0.0)","$VNYMR,-077.075,-002.571,+000.159,-00.1950,+00.2179,-00.3234,-01.051,-00.762,-09.544,-00.023032,-00.007301,-00.233634*6A\r\n'"
1711642272.2586305,0,1711642272,258130788,imu1_frame,0,0,0,,-0.79856785,-0.528562645,-0.200063425,0.20708825379939677,"(0.0, 0.0, 0.0, 0.0, 0.0, 0.0, 0.0, 0.0, 0.0)",-0.025456,-0.003733,-0.23144,"(0.0, 0.0, 0.0, 0.0, 0.0, 0.0, 0.0, 0.0, 0.0)",-1.041,-0.694,-9.545,"(0.0, 0.0, 0.0, 0.0, 0.0, 0.0, 0.0, 0.0, 0.0)",0,0,0,,-0.1962,0.2155,-0.318,"(0.0, 0.0, 0.0, 0.0, 0.0, 0.0, 0.0, 0.0, 0.0)","$VNYMR,-077.412,-002.573,+000.142,-00.1962,+00.2155,-00.3180,-01.041,-00.694,-09.545,-00.025456,-00.003733,-00.231440*6E\r\n'"
1711642272.2845943,0,1711642272,284161329,imu1_frame,0,0,0,,-0.876821412,-0.386366371,-0.235190105,0.16306702441173304,"(0.0, 0.0, 0.0, 0.0, 0.0, 0.0, 0.0, 0.0, 0.0)",-0.020782,-0.002589,-0.23088,"(0.0, 0.0, 0.0, 0.0, 0.0, 0.0, 0.0, 0.0, 0.0)",-1.032,-0.725,-9.176,"(0.0, 0.0, 0.0, 0.0, 0.0, 0.0, 0.0, 0.0, 0.0)",0,0,0,,-0.202,0.2133,-0.3141,"(0.0, 0.0, 0.0, 0.0, 0.0, 0.0, 0.0, 0.0, 0.0)","$VNYMR,-077.746,-002.573,+000.124,-00.2020,+00.2133,-00.3141,-01.032,-00.725,-09.176,-00.020782,-00.002589,-00.230886*6C\r\n'"
1711642272.3092499,0,1711642272,308659791,imu1_frame,0,0,0,,-0.929319198,-0.235225017,-0.260846393,0.11399201454900804,"(0.0, 0.0, 0.0, 0.0, 0.0, 0.0, 0.0, 0.0, 0.0)",-0.020052,0.000882,-0.22952,"(0.0, 0.0, 0.0, 0.0, 0.0, 0.0, 0.0, 0.0, 0.0)",-1.049,-0.666,-9.306,"(0.0, 0.0, 0.0, 0.0, 0.0, 0.0, 0.0, 0.0, 0.0)",0,0,0,,-0.1997,0.212,-0.3195,"(0.0, 0.0, 0.0, 0.0, 0.0, 0.0, 0.0, 0.0, 0.0)","$VNYMR,-078.075,-002.573,+000.106,-00.1997,+00.2120,-00.3195,-01.049,-00.666,-09.306,-00.020052,+00.000882,-00.229529*6E\r\n'"
1711642272.3337336,0,1711642272,333223104,imu1_frame,0,0,0,,-0.956173805,-0.07823411,-0.275115637,0.062629584,"(0.0, 0.0, 0.0, 0.0, 0.0, 0.0, 0.0, 0.0, 0.0)",-0.024272,-0.002021,-0.2263,"(0.0, 0.0, 0.0, 0.0, 0.0, 0.0, 0.0, 0.0, 0.0)",-1.006,-0.651,-9.416,"(0.0, 0.0, 0.0, 0.0, 0.0, 0.0, 0.0, 0.0, 0.0)",0,0,0,,-0.1997,0.2108,-0.3222,"(0.0, 0.0, 0.0, 0.0, 0.0, 0.0, 0.0, 0.0, 0.0)","$VNYMR,-078.403,-002.576,+000.091,-00.1997,+00.2108,-00.3222,-01.006,-00.651,-09.416,-00.024272,-00.002021,-00.226306*68\r\n'"
1711642272.3587012,0,1711642272,358258008,imu1_frame,0,0,0,,-0.956079419,0.081004793,-0.281526637,0.009649888,"(0.0, 0.0, 0.0, 0.0, 0.0, 0.0, 0.0, 0.0, 0.0)",-0.01597,0.001079,-0.23193,"(0.0, 0.0, 0.0, 0.0, 0.0, 0.0, 0.0, 0.0, 0.0)",-0.884,-0.6,-8.977,"(0.0, 0.0, 0.0, 0.0, 0.0, 0.0, 0.0, 0.0, 0.0)",0,0,0,,-0.2032,0.2158,-0.3128,"(0.0, 0.0, 0.0, 0.0, 0.0, 0.0, 0.0, 0.0, 0.0)","$VNYMR,-078.731,-002.575,+000.076,-00.2032,+00.2158,-00.3128,-00.884,-00.600,-08.977,-00.015970,+00.001079,-00.231936*69\r\n'"
1711642272.3846178,0,1711642272,384128332,imu1_frame,0,0,0,,-0.930343068,0.23768316757437682,-0.275510802,-0.045412402,"(0.0, 0.0, 0.0, 0.0, 0.0, 0.0, 0.0, 0.0, 0.0)",-0.021004,0.000554,-0.22996,"(0.0, 0.0, 0.0, 0.0, 0.0, 0.0, 0.0, 0.0, 0.0)",-0.935,-0.691,-9.215,"(0.0, 0.0, 0.0, 0.0, 0.0, 0.0, 0.0, 0.0, 0.0)",0,0,0,,-0.2044,0.2134,-0.317,"(0.0, 0.0, 0.0, 0.0, 0.0, 0.0, 0.0, 0.0, 0.0)","$VNYMR,-079.056,-002.578,+000.055,-00.2044,+00.2134,-00.3170,-00.935,-00.691,-09.215,-00.021004,+00.000554,-00.229964*61\r\n'"
1711642272.4089503,0,1711642272,408413887,imu1_frame,0,0,0,,-0.878773543,0.3885065048238236,-0.259648819,-0.096965183,"(0.0, 0.0, 0.0, 0.0, 0.0, 0.0, 0.0, 0.0, 0.0)",-0.023579,0.000465,-0.23003,"(0.0, 0.0, 0.0, 0.0, 0.0, 0.0, 0.0, 0.0, 0.0)",-0.892,-0.69,-9.424,"(0.0, 0.0, 0.0, 0.0, 0.0, 0.0, 0.0, 0.0, 0.0)",0,0,0,,-0.2068,0.2086,-0.3171,"(0.0, 0.0, 0.0, 0.0, 0.0, 0.0, 0.0, 0.0, 0.0)","$VNYMR,-079.383,-002.581,+000.037,-00.2068,+00.2086,-00.3171,-00.892,-00.690,-09.424,-00.023579,+00.000465,-00.230035*6D\r\n'"
1711642272.4344454,0,1711642272,434025526,imu1_frame,0,0,0,,-0.803349022,0.5282406192823278,-0.235377404,-0.142090373,"(0.0, 0.0, 0.0, 0.0, 0.0, 0.0, 0.0, 0.0, 0.0)",-0.017409,-0.000332,-0.23028,"(0.0, 0.0, 0.0, 0.0, 0.0, 0.0, 0.0, 0.0, 0.0)",-0.93,-0.701,-9.547,"(0.0, 0.0, 0.0, 0.0, 0.0, 0.0, 0.0, 0.0, 0.0)",0,0,0,,-0.2056,0.2134,-0.3225,"(0.0, 0.0, 0.0, 0.0, 0.0, 0.0, 0.0, 0.0, 0.0)","$VNYMR,-079.710,-002.585,+000.024,-00.2056,+00.2134,-00.3225,-00.930,-00.701,-09.547,-00.017409,-00.000332,-00.230280*68\r\n'"
1711642272.4598796,0,1711642272,459058284,imu1_frame,0,0,0,,-0.706494302,0.6521871702375577,-0.206355575,-0.181480227,"(0.0, 0.0, 0.0, 0.0, 0.0, 0.0, 0.0, 0.0, 0.0)",-0.018727,0.005132,-0.2264,"(0.0, 0.0, 0.0, 0.0, 0.0, 0.0, 0.0, 0.0, 0.0)",-0.988,-0.703,-9.737,"(0.0, 0.0, 0.0, 0.0, 0.0, 0.0, 0.0, 0.0, 0.0)",0,0,0,,-0.2068,0.2086,-0.3212,"(0.0, 0.0, 0.0, 0.0, 0.0, 0.0, 0.0, 0.0, 0.0)","$VNYMR,-080.035,-002.585,+000.015,-00.2068,+00.2086,-00.3212,-00.988,-00.703,-09.737,-00.018727,+00.005132,-00.226401*60\r\n'"
1711642272.484691,0,1711642272,484017372,imu1_frame,0,0,0,,-0.591518326,0.7580335780344528,-0.172487781,-0.213867084,"(0.0, 0.0, 0.0, 0.0, 0.0, 0.0, 0.0, 0.0, 0.0)",-0.015773,0.004713,-0.22481,"(0.0, 0.0, 0.0, 0.0, 0.0, 0.0, 0.0, 0.0, 0.0)",-0.92,-0.616,-9.737,"(0.0, 0.0, 0.0, 0.0, 0.0, 0.0, 0.0, 0.0, 0.0)",0,0,0,,-0.2067,0.211,-0.3116,"(0.0, 0.0, 0.0, 0.0, 0.0, 0.0, 0.0, 0.0, 0.0)","$VNYMR,-080.359,-002.585,+000.010,-00.2067,+00.2110,-00.3116,-00.920,-00.616,-09.737,-00.015773,+00.004713,-00.224815*6E\r\n'"
1711642272.5094073,0,1711642272,508933782,imu1_frame,0,0,0,,-0.4613869,0.8434335737122751,-0.134396791,-0.240165437,"(0.0, 0.0, 0.0, 0.0, 0.0, 0.0, 0.0, 0.0, 0.0)",-0.016596,0.004307,-0.22361,"(0.0, 0.0, 0.0, 0.0, 0.0, 0.0, 0.0, 0.0, 0.0)",-0.875,-0.701,-9.813,"(0.0, 0.0, 0.0, 0.0, 0.0, 0.0, 0.0, 0.0, 0.0)",0,0,0,,-0.2104,0.1991,-0.3158,"(0.0, 0.0, 0.0, 0.0, 0.0, 0.0, 0.0, 0.0, 0.0)","$VNYMR,-080.682,-002.584,+000.006,-00.2104,+00.1991,-00.3158,-00.875,-00.701,-09.813,-00.016596,+00.004307,-00.223610*6F\r\n'"
1711642272.5348074,0,1711642272,533796548,imu1_frame,0,0,0,,-0.319927619,0.906301173,-0.092341785,-0.260264284,"(0.0, 0.0, 0.0, 0.0, 0.0, 0.0, 0.0, 0.0, 0.0)",-0.015496,0.00538,-0.22521,"(0.0, 0.0, 0.0, 0.0, 0.0, 0.0, 0.0, 0.0, 0.0)",-0.941,-0.726,-9.779,"(0.0, 0.0, 0.0, 0.0, 0.0, 0.0, 0.0, 0.0, 0.0)",0,0,0,,-0.2046,0.1941,-0.3018,"(0.0, 0.0, 0.0, 0.0, 0.0, 0.0, 0.0, 0.0, 0.0)","$VNYMR,-081.003,-002.582,+000.001,-00.2046,+00.1941,-00.3018,-00.941,-00.726,-09.779,-00.015496,+00.005380,-00.225211*60\r\n'"
1711642272.5599468,0,1711642272,559222936,imu1_frame,0,0,0,,-0.17035848,0.9454700559817576,-0.04792682,-0.273436248,"(0.0, 0.0, 0.0, 0.0, 0.0, 0.0, 0.0, 0.0, 0.0)",-0.012774,0.005632,-0.22612,"(0.0, 0.0, 0.0, 0.0, 0.0, 0.0, 0.0, 0.0, 0.0)",-0.977,-0.815,-9.777,"(0.0, 0.0, 0.0, 0.0, 0.0, 0.0, 0.0, 0.0, 0.0)",0,0,0,,-0.2069,0.199,-0.2992,"(0.0, 0.0, 0.0, 0.0, 0.0, 0.0, 0.0, 0.0, 0.0)","$VNYMR,-081.324,-002.579,-000.003,-00.2069,+00.1990,-00.2992,-00.977,-00.815,-09.777,-00.012774,+00.005632,-00.226122*6D\r\n'"
1711642272.585743,0,1711642272,584604501,imu1_frame,0,0,0,,-0.016163296,0.9601389052821923,-0.002059637,-0.279048004,"(0.0, 0.0, 0.0, 0.0, 0.0, 0.0, 0.0, 0.0, 0.0)",-0.016675,0.005879,-0.22665,"(0.0, 0.0, 0.0, 0.0, 0.0, 0.0, 0.0, 0.0, 0.0)",-0.963,-0.664,-10.017,"(0.0, 0.0, 0.0, 0.0, 0.0, 0.0, 0.0, 0.0, 0.0)",0,0,0,,-0.207,0.1917,-0.2992,"(0.0, 0.0, 0.0, 0.0, 0.0, 0.0, 0.0, 0.0, 0.0)","$VNYMR,-081.646,-002.576,-000.006,-00.2070,+00.1917,-00.2992,-00.963,-00.664,-10.017,-00.016675,+00.005879,-00.226650*62\r\n'"
1711642272.6099885,0,1711642272,608868598,imu1_frame,0,0,0,,0.13919159921337637,0.9497106018644925,0.042845190526415854,-0.277199858,"(0.0, 0.0, 0.0, 0.0, 0.0, 0.0, 0.0, 0.0, 0.0)",-0.017041,0.003193,-0.2218,"(0.0, 0.0, 0.0, 0.0, 0.0, 0.0, 0.0, 0.0, 0.0)",-0.834,-0.383,-9.796,"(0.0, 0.0, 0.0, 0.0, 0.0, 0.0, 0.0, 0.0, 0.0)",0,0,0,,-0.207,0.1857,-0.2978,"(0.0, 0.0, 0.0, 0.0, 0.0, 0.0, 0.0, 0.0, 0.0)","$VNYMR,-081.971,-002.573,-000.005,-00.2070,+00.1857,-00.2978,-00.834,-00.383,-09.796,-00.017041,+00.003193,-00.221806*66\r\n'"
1711642272.634829,0,1711642272,634262561,imu1_frame,0,0,0,,0.2900741164990975,0.9142393201777081,0.086802983,-0.269237283,"(0.0, 0.0, 0.0, 0.0, 0.0, 0.0, 0.0, 0.0, 0.0)",-0.01328,0.00347,-0.22506,"(0.0, 0.0, 0.0, 0.0, 0.0, 0.0, 0.0, 0.0, 0.0)",-0.947,-0.521,-9.647,"(0.0, 0.0, 0.0, 0.0, 0.0, 0.0, 0.0, 0.0, 0.0)",0,0,0,,-0.2072,0.1724,-0.2841,"(0.0, 0.0, 0.0, 0.0, 0.0, 0.0, 0.0, 0.0, 0.0)","$VNYMR,-082.295,-002.568,-000.003,-00.2072,+00.1724,-00.2841,-00.947,-00.521,-09.647,-00.013280,+00.003470,-00.225062*61\r\n'"
1711642272.660691,0,1711642272,659950256,imu1_frame,0,0,0,,0.4336720489384714,0.8550366949370864,0.13016921232629736,-0.252778125,"(0.0, 0.0, 0.0, 0.0, 0.0, 0.0, 0.0, 0.0, 0.0)",-0.01785,0.002925,-0.22307,"(0.0, 0.0, 0.0, 0.0, 0.0, 0.0, 0.0, 0.0, 0.0)",-0.97,-0.622,-9.719,"(0.0, 0.0, 0.0, 0.0, 0.0, 0.0, 0.0, 0.0, 0.0)",0,0,0,,-0.2071,0.1773,-0.2786,"(0.0, 0.0, 0.0, 0.0, 0.0, 0.0, 0.0, 0.0, 0.0)","$VNYMR,-082.619,-002.565,-000.004,-00.2071,+00.1773,-00.2786,-00.970,-00.622,-09.719,-00.017850,+00.002925,-00.223075*6F\r\n'"
1711642272.6849415,0,1711642272,684256076,imu1_frame,0,0,0,,0.5658010383717907,0.7732596699049471,0.17113901827801956,-0.229456105,"(0.0, 0.0, 0.0, 0.0, 0.0, 0.0, 0.0, 0.0, 0.0)",-0.013245,0.001452,-0.22655,"(0.0, 0.0, 0.0, 0.0, 0.0, 0.0, 0.0, 0.0, 0.0)",-0.948,-0.64,-9.562,"(0.0, 0.0, 0.0, 0.0, 0.0, 0.0, 0.0, 0.0, 0.0)",0,0,0,,-0.2072,0.1725,-0.2745,"(0.0, 0.0, 0.0, 0.0, 0.0, 0.0, 0.0, 0.0, 0.0)","$VNYMR,-082.943,-002.561,-000.006,-00.2072,+00.1725,-00.2745,-00.948,-00.640,-09.562,-00.013245,+00.001452,-00.226557*63\r\n'"
1711642272.7108154,0,1711642272,710020303,imu1_frame,0,0,0,,0.6838757840117416,0.6700568996929152,0.20982341559287235,-0.198272029,"(0.0, 0.0, 0.0, 0.0, 0.0, 0.0, 0.0, 0.0, 0.0)",-0.014426,0.002723,-0.2267,"(0.0, 0.0, 0.0, 0.0, 0.0, 0.0, 0.0, 0.0, 0.0)",-0.878,-0.612,-9.418,"(0.0, 0.0, 0.0, 0.0, 0.0, 0.0, 0.0, 0.0, 0.0)",0,0,0,,-0.2119,0.1617,-0.2787,"(0.0, 0.0, 0.0, 0.0, 0.0, 0.0, 0.0, 0.0, 0.0)","$VNYMR,-083.269,-002.556,-000.012,-00.2119,+00.1617,-00.2787,-00.878,-00.612,-09.418,-00.014426,+00.002723,-00.226700*69\r\n'"
1711642272.7344844,0,1711642272,734017848,imu1_frame,0,0,0,,0.7835662713828916,0.549365227,0.24250781364820317,-0.159410494,"(0.0, 0.0, 0.0, 0.0, 0.0, 0.0, 0.0, 0.0, 0.0)",-0.022434,0.002331,-0.22174,"(0.0, 0.0, 0.0, 0.0, 0.0, 0.0, 0.0, 0.0, 0.0)",-0.929,-0.595,-9.532,"(0.0, 0.0, 0.0, 0.0, 0.0, 0.0, 0.0, 0.0, 0.0)",0,0,0,,-0.212,0.1557,-0.2678,"(0.0, 0.0, 0.0, 0.0, 0.0, 0.0, 0.0, 0.0, 0.0)","$VNYMR,-083.594,-002.553,-000.020,-00.2120,+00.1557,-00.2678,-00.929,-00.595,-09.532,-00.022434,+00.002331,-00.221748*6E\r\n'"
1711642272.7592802,0,1711642272,758762121,imu1_frame,0,0,0,,0.8619845919640432,0.4141782937729698,0.2688367408716689,-0.114741932,"(0.0, 0.0, 0.0, 0.0, 0.0, 0.0, 0.0, 0.0, 0.0)",-0.024898,0.000655,-0.22054,"(0.0, 0.0, 0.0, 0.0, 0.0, 0.0, 0.0, 0.0, 0.0)",-0.81,-0.615,-9.429,"(0.0, 0.0, 0.0, 0.0, 0.0, 0.0, 0.0, 0.0, 0.0)",0,0,0,,-0.2097,0.1556,-0.2649,"(0.0, 0.0, 0.0, 0.0, 0.0, 0.0, 0.0, 0.0, 0.0)","$VNYMR,-083.918,-002.549,-000.030,-00.2097,+00.1556,-00.2649,-00.810,-00.615,-09.429,-00.024898,+00.000655,-00.220540*6B\r\n'"
1711642272.7843187,0,1711642272,783742427,imu1_frame,0,0,0,,0.9168451040714812,0.26871323238126343,0.28724014671919373,-0.068420406,"(0.0, 0.0, 0.0, 0.0, 0.0, 0.0, 0.0, 0.0, 0.0)",-0.019967,0.002015,-0.22261,"(0.0, 0.0, 0.0, 0.0, 0.0, 0.0, 0.0, 0.0, 0.0)",-0.804,-0.7,-9.286,"(0.0, 0.0, 0.0, 0.0, 0.0, 0.0, 0.0, 0.0, 0.0)",0,0,0,,-0.2166,0.1595,-0.2721,"(0.0, 0.0, 0.0, 0.0, 0.0, 0.0, 0.0, 0.0, 0.0)","$VNYMR,-084.242,-002.543,-000.035,-00.2166,+00.1595,-00.2721,-00.804,-00.700,-09.286,-00.019967,+00.002015,-00.222613*63\r\n'"
1711642272.8095062,0,1711642272,808804512,imu1_frame,0,0,0,,0.9474435770517879,0.11548711845318214,0.29782923554267066,-0.017639168,"(0.0, 0.0, 0.0, 0.0, 0.0, 0.0, 0.0, 0.0, 0.0)",-0.014778,0.00061,-0.22373,"(0.0, 0.0, 0.0, 0.0, 0.0, 0.0, 0.0, 0.0, 0.0)",-0.777,-0.655,-9.117,"(0.0, 0.0, 0.0, 0.0, 0.0, 0.0, 0.0, 0.0, 0.0)",0,0,0,,-0.2167,0.1583,-0.2639,"(0.0, 0.0, 0.0, 0.0, 0.0, 0.0, 0.0, 0.0, 0.0)","$VNYMR,-084.567,-002.537,-000.043,-00.2167,+00.1583,-00.2639,-00.777,-00.655,-09.117,-00.014778,+00.000610,-00.223732*61\r\n'"
1711642272.8349528,0,1711642272,834263086,imu1_frame,0,0,0,,0.9527981465621581,-0.042736141,0.29839474242329533,0.036192428,"(0.0, 0.0, 0.0, 0.0, 0.0, 0.0, 0.0, 0.0, 0.0)",-0.015219,0.001152,-0.22927,"(0.0, 0.0, 0.0, 0.0, 0.0, 0.0, 0.0, 0.0, 0.0)",-0.756,-0.757,-9.215,"(0.0, 0.0, 0.0, 0.0, 0.0, 0.0, 0.0, 0.0, 0.0)",0,0,0,,-0.2166,0.1595,-0.268,"(0.0, 0.0, 0.0, 0.0, 0.0, 0.0, 0.0, 0.0, 0.0)","$VNYMR,-084.896,-002.533,-000.053,-00.2166,+00.1595,-00.2680,-00.756,-00.757,-09.215,-00.015219,+00.001152,-00.229279*61\r\n'"
1711642272.8618493,0,1711642272,861296176,imu1_frame,0,0,0,,0.9316364396170955,-0.200257085,0.2885631452249782,0.093177011,"(0.0, 0.0, 0.0, 0.0, 0.0, 0.0, 0.0, 0.0, 0.0)",-0.0255,0.000648,-0.22753,"(0.0, 0.0, 0.0, 0.0, 0.0, 0.0, 0.0, 0.0, 0.0)",-0.754,-0.66,-9.185,"(0.0, 0.0, 0.0, 0.0, 0.0, 0.0, 0.0, 0.0, 0.0)",0,0,0,,-0.2202,0.1596,-0.2668,"(0.0, 0.0, 0.0, 0.0, 0.0, 0.0, 0.0, 0.0, 0.0)","$VNYMR,-085.224,-002.529,-000.071,-00.2202,+00.1596,-00.2668,-00.754,-00.660,-09.185,-00.025500,+00.000648,-00.227535*61\r\n'"
1711642272.8842187,0,1711642272,883693933,imu1_frame,0,0,0,,0.8841591443808849,-0.352491439,0.26830647204663993,0.14840495143861968,"(0.0, 0.0, 0.0, 0.0, 0.0, 0.0, 0.0, 0.0, 0.0)",-0.026341,0.001919,-0.22899,"(0.0, 0.0, 0.0, 0.0, 0.0, 0.0, 0.0, 0.0, 0.0)",-0.71,-0.599,-9.151,"(0.0, 0.0, 0.0, 0.0, 0.0, 0.0, 0.0, 0.0, 0.0)",0,0,0,,-0.2214,0.1524,-0.2654,"(0.0, 0.0, 0.0, 0.0, 0.0, 0.0, 0.0, 0.0, 0.0)","$VNYMR,-085.553,-002.524,-000.090,-00.2214,+00.1524,-00.2654,-00.710,-00.599,-09.151,-00.026341,+00.001919,-00.228990*6F\r\n'"
1711642272.9094675,0,1711642272,908833265,imu1_frame,0,0,0,,0.8119318487519439,-0.494510638,0.23776474096622296,0.1992331040902055,"(0.0, 0.0, 0.0, 0.0, 0.0, 0.0, 0.0, 0.0, 0.0)",-0.027214,0.001344,-0.22508,"(0.0, 0.0, 0.0, 0.0, 0.0, 0.0, 0.0, 0.0, 0.0)",-0.636,-0.58,-9.005,"(0.0, 0.0, 0.0, 0.0, 0.0, 0.0, 0.0, 0.0, 0.0)",0,0,0,,-0.2226,0.1536,-0.2696,"(0.0, 0.0, 0.0, 0.0, 0.0, 0.0, 0.0, 0.0, 0.0)","$VNYMR,-085.882,-002.519,-000.109,-00.2226,+00.1536,-00.2696,-00.636,-00.580,-09.005,-00.027214,+00.001344,-00.225082*65\r\n'"
1711642272.9343233,0,1711642272,933794736,imu1_frame,0,0,0,,0.7175761484401139,-0.620963202,0.1973690398497864,0.24603787317954867,"(0.0, 0.0, 0.0, 0.0, 0.0, 0.0, 0.0, 0.0, 0.0)",-0.03029,0.006275,-0.22289,"(0.0, 0.0, 0.0, 0.0, 0.0, 0.0, 0.0, 0.0, 0.0)",-0.646,-0.534,-9.207,"(0.0, 0.0, 0.0, 0.0, 0.0, 0.0, 0.0, 0.0, 0.0)",0,0,0,,-0.2203,0.1475,-0.2763,"(0.0, 0.0, 0.0, 0.0, 0.0, 0.0, 0.0, 0.0, 0.0)","$VNYMR,-086.206,-002.512,-000.134,-00.2203,+00.1475,-00.2763,-00.646,-00.534,-09.207,-00.030290,+00.006275,-00.222890*65\r\n'"
1711642272.9593992,0,1711642272,958844661,imu1_frame,0,0,0,,0.6038233859204089,-0.729001216,0.14910910357455434,0.2858688876418461,"(0.0, 0.0, 0.0, 0.0, 0.0, 0.0, 0.0, 0.0, 0.0)",-0.024483,0.007246,-0.22358,"(0.0, 0.0, 0.0, 0.0, 0.0, 0.0, 0.0, 0.0, 0.0)",-0.75,-0.688,-9.167,"(0.0, 0.0, 0.0, 0.0, 0.0, 0.0, 0.0, 0.0, 0.0)",0,0,0,,-0.225,0.144,-0.2655,"(0.0, 0.0, 0.0, 0.0, 0.0, 0.0, 0.0, 0.0, 0.0)","$VNYMR,-086.528,-002.502,-000.160,-00.2250,+00.1440,-00.2655,-00.750,-00.688,-09.167,-00.024483,+00.007246,-00.223583*63\r\n'"
1711642272.9842746,0,1711642272,983751773,imu1_frame,0,0,0,,0.4747104325932466,-0.815783157,0.09327681,0.3169341917627727,"(0.0, 0.0, 0.0, 0.0, 0.0, 0.0, 0.0, 0.0, 0.0)",-0.028383,0.009388,-0.22256,"(0.0, 0.0, 0.0, 0.0, 0.0, 0.0, 0.0, 0.0, 0.0)",-0.675,-0.532,-8.999,"(0.0, 0.0, 0.0, 0.0, 0.0, 0.0, 0.0, 0.0, 0.0)",0,0,0,,-0.2238,0.1476,-0.2751,"(0.0, 0.0, 0.0, 0.0, 0.0, 0.0, 0.0, 0.0, 0.0)","$VNYMR,-086.847,-002.491,-000.188,-00.2238,+00.1476,-00.2751,-00.675,-00.532,-08.999,-00.028383,+00.009388,-00.222561*63\r\n'"
1711642273.0103588,0,1711642273,9321451,imu1_frame,0,0,0,,0.3353119888091638,-0.879247966,0.030021935,0.33702754752399217,"(0.0, 0.0, 0.0, 0.0, 0.0, 0.0, 0.0, 0.0, 0.0)",-0.033778,0.006328,-0.2146,"(0.0, 0.0, 0.0, 0.0, 0.0, 0.0, 0.0, 0.0, 0.0)",-0.591,-0.427,-8.984,"(0.0, 0.0, 0.0, 0.0, 0.0, 0.0, 0.0, 0.0, 0.0)",0,0,0,,-0.2261,0.1513,-0.267,"(0.0, 0.0, 0.0, 0.0, 0.0, 0.0, 0.0, 0.0, 0.0)","$VNYMR,-087.160,-002.482,-000.221,-00.2261,+00.1513,-00.2670,-00.591,-00.427,-08.984,-00.033778,+00.006328,-00.214606*68\r\n'"
1711642273.0343978,0,1711642273,33767223,imu1_frame,0,0,0,,0.1906942025533083,-0.918249928,-0.04059222,0.34468110269505153,"(0.0, 0.0, 0.0, 0.0, 0.0, 0.0, 0.0, 0.0, 0.0)",-0.040842,0.00196,-0.21108,"(0.0, 0.0, 0.0, 0.0, 0.0, 0.0, 0.0, 0.0, 0.0)",-0.641,-0.53,-9.065,"(0.0, 0.0, 0.0, 0.0, 0.0, 0.0, 0.0, 0.0, 0.0)",0,0,0,,-0.225,0.1404,-0.2765,"(0.0, 0.0, 0.0, 0.0, 0.0, 0.0, 0.0, 0.0, 0.0)","$VNYMR,-087.463,-002.476,-000.265,-00.2250,+00.1404,-00.2765,-00.641,-00.530,-09.065,-00.040842,+00.001960,-00.211084*61\r\n'"
1711642273.0590448,0,1711642273,58544158,imu1_frame,0,0,0,,0.043471455,-0.933711731,-0.111169611,0.33754104,"(0.0, 0.0, 0.0, 0.0, 0.0, 0.0, 0.0, 0.0, 0.0)",-0.03462,0.004435,-0.21304,"(0.0, 0.0, 0.0, 0.0, 0.0, 0.0, 0.0, 0.0, 0.0)",-0.718,-0.617,-9.375,"(0.0, 0.0, 0.0, 0.0, 0.0, 0.0, 0.0, 0.0, 0.0)",0,0,0,,-0.2274,0.1381,-0.2738,"(0.0, 0.0, 0.0, 0.0, 0.0, 0.0, 0.0, 0.0, 0.0)","$VNYMR,-087.764,-002.472,-000.307,-00.2274,+00.1381,-00.2738,-00.718,-00.617,-09.375,-00.034620,+00.004435,-00.213048*6A\r\n'"
1711642273.0842805,0,1711642273,83639860,imu1_frame,0,0,0,,-0.103836054,-0.926247095,-0.176300052,0.31654807635622395,"(0.0, 0.0, 0.0, 0.0, 0.0, 0.0, 0.0, 0.0, 0.0)",-0.027378,0.008752,-0.21523,"(0.0, 0.0, 0.0, 0.0, 0.0, 0.0, 0.0, 0.0, 0.0)",-0.825,-0.552,-9.578,"(0.0, 0.0, 0.0, 0.0, 0.0, 0.0, 0.0, 0.0, 0.0)",0,0,0,,-0.232,0.1454,-0.2809,"(0.0, 0.0, 0.0, 0.0, 0.0, 0.0, 0.0, 0.0, 0.0)","$VNYMR,-088.068,-002.469,-000.340,-00.2320,+00.1454,-00.2809,-00.825,-00.552,-09.578,-00.027378,+00.008752,-00.215237*65\r\n'"
1711642273,0,1711642273,111818313,imu1_frame,0,0,0,,-0.246473278,-0.89659336,-0.234695875,0.2833533419012867,"(0.0, 0.0, 0.0, 0.0, 0.0, 0.0, 0.0, 0.0, 0.0)",-0.026453,0.006879,-0.21329,"(0.0, 0.0, 0.0, 0.0, 0.0, 0.0, 0.0, 0.0, 0.0)",-0.767,-0.494,-9.601,"(0.0, 0.0, 0.0, 0.0, 0.0, 0.0, 0.0, 0.0, 0.0)",0,0,0,,-0.2296,0.1502,-0.2863,"(0.0, 0.0, 0.0, 0.0, 0.0, 0.0, 0.0, 0.0, 0.0)","$VNYMR,-088.371,-002.468,-000.368,-00.2296,+00.1502,-00.2863,-00.767,-00.494,-09.601,-00.026453,+00.006879,-00.213299*6D\r\n'"
1711642273.135911,0,1711642273,135058641,imu1_frame,0,0,0,,-0.381813913,-0.846134643,-0.284679792,0.2392315146883177,"(0.0, 0.0, 0.0, 0.0, 0.0, 0.0, 0.0, 0.0, 0.0)",-0.028631,0.004,-0.21044,"(0.0, 0.0, 0.0, 0.0, 0.0, 0.0, 0.0, 0.0, 0.0)",-0.661,-0.34,-9.53,"(0.0, 0.0, 0.0, 0.0, 0.0, 0.0, 0.0, 0.0, 0.0)",0,0,0,,-0.2321,0.137,-0.2836,"(0.0, 0.0, 0.0, 0.0, 0.0, 0.0, 0.0, 0.0, 0.0)","$VNYMR,-088.674,-002.470,-000.392,-00.2321,+00.1370,-00.2836,-00.661,-00.340,-09.530,-00.028631,+00.004000,-00.210444*6E\r\n'"
1711642273.1592367,0,1711642273,158679246,imu1_frame,0,0,0,,-0.507224723,-0.775655,-0.325682792,0.18711793311008748,"(0.0, 0.0, 0.0, 0.0, 0.0, 0.0, 0.0, 0.0, 0.0)",-0.022118,0.000884,-0.21656,"(0.0, 0.0, 0.0, 0.0, 0.0, 0.0, 0.0, 0.0, 0.0)",-0.655,-0.419,-9.282,"(0.0, 0.0, 0.0, 0.0, 0.0, 0.0, 0.0, 0.0, 0.0)",0,0,0,,-0.2344,0.1358,-0.2823,"(0.0, 0.0, 0.0, 0.0, 0.0, 0.0, 0.0, 0.0, 0.0)","$VNYMR,-088.977,-002.472,-000.414,-00.2344,+00.1358,-00.2823,-00.655,-00.419,-09.282,-00.022118,+00.000884,-00.216560*61\r\n'"
1711642273.1867294,0,1711642273,185007095,imu1_frame,0,0,0,,-0.620735417,-0.686094153,-0.357472663,0.1271835282304447,"(0.0, 0.0, 0.0, 0.0, 0.0, 0.0, 0.0, 0.0, 0.0)",-0.019428,0.002968,-0.2176,"(0.0, 0.0, 0.0, 0.0, 0.0, 0.0, 0.0, 0.0, 0.0)",-0.59,-0.462,-9.432,"(0.0, 0.0, 0.0, 0.0, 0.0, 0.0, 0.0, 0.0, 0.0)",0,0,0,,-0.2332,0.1394,-0.2851,"(0.0, 0.0, 0.0, 0.0, 0.0, 0.0, 0.0, 0.0, 0.0)","$VNYMR,-089.282,-002.475,-000.437,-00.2332,+00.1394,-00.2851,-00.590,-00.462,-09.432,-00.019428,+00.002968,-00.217609*6A\r\n'"
1711642273.2096422,0,1711642273,208895444,imu1_frame,0,0,0,,-0.71886034,-0.579340385,-0.3790571,0.062611863,"(0.0, 0.0, 0.0, 0.0, 0.0, 0.0, 0.0, 0.0, 0.0)",-0.022329,0.0047,-0.21359,"(0.0, 0.0, 0.0, 0.0, 0.0, 0.0, 0.0, 0.0, 0.0)",-0.555,-0.272,-9.389,"(0.0, 0.0, 0.0, 0.0, 0.0, 0.0, 0.0, 0.0, 0.0)",0,0,0,,-0.2344,0.1431,-0.2824,"(0.0, 0.0, 0.0, 0.0, 0.0, 0.0, 0.0, 0.0, 0.0)","$VNYMR,-089.588,-002.476,-000.460,-00.2344,+00.1431,-00.2824,-00.555,-00.272,-09.389,-00.022329,+00.004700,-00.213592*69\r\n'"
1711642273.2341933,0,1711642273,233611822,imu1_frame,0,0,0,,-0.798728233,-0.46029171,-0.387488599,-0.004163884,"(0.0, 0.0, 0.0, 0.0, 0.0, 0.0, 0.0, 0.0, 0.0)",-0.024381,0.003278,-0.21285,"(0.0, 0.0, 0.0, 0.0, 0.0, 0.0, 0.0, 0.0, 0.0)",-0.58,-0.444,-9.487,"(0.0, 0.0, 0.0, 0.0, 0.0, 0.0, 0.0, 0.0, 0.0)",0,0,0,,-0.2355,0.1455,-0.292,"(0.0, 0.0, 0.0, 0.0, 0.0, 0.0, 0.0, 0.0, 0.0)","$VNYMR,-089.893,-002.479,-000.479,-00.2355,+00.1455,-00.2920,-00.580,-00.444,-09.487,-00.024381,+00.003278,-00.212855*62\r\n'"
1711642273.259006,0,1711642273,258541584,imu1_frame,0,0,0,,-0.858828094,-0.330757698,-0.385079541,-0.068756071,"(0.0, 0.0, 0.0, 0.0, 0.0, 0.0, 0.0, 0.0, 0.0)",-0.015026,0.009063,-0.2157,"(0.0, 0.0, 0.0, 0.0, 0.0, 0.0, 0.0, 0.0, 0.0)",-0.65,-0.729,-9.507,"(0.0, 0.0, 0.0, 0.0, 0.0, 0.0, 0.0, 0.0, 0.0)",0,0,0,,-0.2368,0.1395,-0.2893,"(0.0, 0.0, 0.0, 0.0, 0.0, 0.0, 0.0, 0.0, 0.0)","$VNYMR,-090.198,-002.478,-000.493,-00.2368,+00.1395,-00.2893,-00.650,-00.729,-09.507,-00.015026,+00.009063,-00.215703*6B\r\n'"
1711642273.283975,0,1711642273,283572435,imu1_frame,0,0,0,,-0.898087511,-0.193121145,-0.373369613,-0.129376108,"(0.0, 0.0, 0.0, 0.0, 0.0, 0.0, 0.0, 0.0, 0.0)",-0.009744,0.015043,-0.21956,"(0.0, 0.0, 0.0, 0.0, 0.0, 0.0, 0.0, 0.0, 0.0)",-0.731,-0.609,-9.624,"(0.0, 0.0, 0.0, 0.0, 0.0, 0.0, 0.0, 0.0, 0.0)",0,0,0,,-0.2368,0.1323,-0.2865,"(0.0, 0.0, 0.0, 0.0, 0.0, 0.0, 0.0, 0.0, 0.0)","$VNYMR,-090.505,-002.472,-000.501,-00.2368,+00.1323,-00.2865,-00.731,-00.609,-09.624,-00.009744,+00.015043,-00.219563*61\r\n'"
1711642273.3093598,0,1711642273,308688879,imu1_frame,0,0,0,,-0.915388081,-0.052033223,-0.353410671,-0.185628939,"(0.0, 0.0, 0.0, 0.0, 0.0, 0.0, 0.0, 0.0, 0.0)",-0.014223,0.014608,-0.21539,"(0.0, 0.0, 0.0, 0.0, 0.0, 0.0, 0.0, 0.0, 0.0)",-0.653,-0.375,-9.59,"(0.0, 0.0, 0.0, 0.0, 0.0, 0.0, 0.0, 0.0, 0.0)",0,0,0,,-0.2379,0.1396,-0.2976,"(0.0, 0.0, 0.0, 0.0, 0.0, 0.0, 0.0, 0.0, 0.0)","$VNYMR,-090.811,-002.463,-000.505,-00.2379,+00.1396,-00.2976,-00.653,-00.375,-09.590,-00.014223,+00.014608,-00.215396*67\r\n'"
1711642273.333965,0,1711642273,333522319,imu1_frame,0,0,0,,-0.910326268,0.089272436,-0.326025753,-0.238838286,"(0.0, 0.0, 0.0, 0.0, 0.0, 0.0, 0.0, 0.0, 0.0)",-0.017079,0.015419,-0.21526,"(0.0, 0.0, 0.0, 0.0, 0.0, 0.0, 0.0, 0.0, 0.0)",-0.664,-0.448,-9.523,"(0.0, 0.0, 0.0, 0.0, 0.0, 0.0, 0.0, 0.0, 0.0)",0,0,0,,-0.2368,0.1323,-0.2989,"(0.0, 0.0, 0.0, 0.0, 0.0, 0.0, 0.0, 0.0, 0.0)","$VNYMR,-091.115,-002.452,-000.510,-00.2368,+00.1323,-00.2989,-00.664,-00.448,-09.523,-00.017079,+00.015419,-00.215263*60\r\n'"
1711642273.3601675,0,1711642273,359577655,imu1_frame,0,0,0,,-0.88325957,0.2291388903177368,-0.29011851,-0.288407961,"(0.0, 0.0, 0.0, 0.0, 0.0, 0.0, 0.0, 0.0, 0.0)",-0.020461,0.013155,-0.21332,"(0.0, 0.0, 0.0, 0.0, 0.0, 0.0, 0.0, 0.0, 0.0)",-0.646,-0.494,-9.574,"(0.0, 0.0, 0.0, 0.0, 0.0, 0.0, 0.0, 0.0, 0.0)",0,0,0,,-0.2391,0.1372,-0.2894,"(0.0, 0.0, 0.0, 0.0, 0.0, 0.0, 0.0, 0.0, 0.0)","$VNYMR,-091.422,-002.441,-000.515,-00.2391,+00.1372,-00.2894,-00.646,-00.494,-09.574,-00.020461,+00.013155,-00.213323*6B\r\n'"
1711642273.3842857,0,1711642273,383601665,imu1_frame,0,0,0,,-0.834459772,0.3624006894305413,-0.244763804,-0.335310765,"(0.0, 0.0, 0.0, 0.0, 0.0, 0.0, 0.0, 0.0, 0.0)",-0.024286,0.011827,-0.21074,"(0.0, 0.0, 0.0, 0.0, 0.0, 0.0, 0.0, 0.0, 0.0)",-0.673,-0.534,-9.591,"(0.0, 0.0, 0.0, 0.0, 0.0, 0.0, 0.0, 0.0, 0.0)",0,0,0,,-0.2379,0.1408,-0.2976,"(0.0, 0.0, 0.0, 0.0, 0.0, 0.0, 0.0, 0.0, 0.0)","$VNYMR,-091.726,-002.432,-000.528,-00.2379,+00.1408,-00.2976,-00.673,-00.534,-09.591,-00.024286,+00.011827,-00.210740*66\r\n'"
1711642273.4092288,0,1711642273,408529520,imu1_frame,0,0,0,,-0.766912616,0.48468533829266197,-0.190830771,-0.374845007,"(0.0, 0.0, 0.0, 0.0, 0.0, 0.0, 0.0, 0.0, 0.0)",-0.023265,0.010085,-0.20676,"(0.0, 0.0, 0.0, 0.0, 0.0, 0.0, 0.0, 0.0, 0.0)",-0.677,-0.53,-9.694,"(0.0, 0.0, 0.0, 0.0, 0.0, 0.0, 0.0, 0.0, 0.0)",0,0,0,,-0.2368,0.1311,-0.2975,"(0.0, 0.0, 0.0, 0.0, 0.0, 0.0, 0.0, 0.0, 0.0)","$VNYMR,-092.026,-002.426,-000.543,-00.2368,+00.1311,-00.2975,-00.677,-00.530,-09.694,-00.023265,+00.010085,-00.206769*67\r\n'"
1711642273.4346807,0,1711642273,433658599,imu1_frame,0,0,0,,-0.682382825,0.5945592989132275,-0.13247698,-0.404107374,"(0.0, 0.0, 0.0, 0.0, 0.0, 0.0, 0.0, 0.0, 0.0)",-0.020827,0.010586,-0.20558,"(0.0, 0.0, 0.0, 0.0, 0.0, 0.0, 0.0, 0.0, 0.0)",-0.574,-0.665,-9.807,"(0.0, 0.0, 0.0, 0.0, 0.0, 0.0, 0.0, 0.0, 0.0)",0,0,0,,-0.2404,0.1288,-0.3004,"(0.0, 0.0, 0.0, 0.0, 0.0, 0.0, 0.0, 0.0, 0.0)","$VNYMR,-092.326,-002.419,-000.553,-00.2404,+00.1288,-00.3004,-00.574,-00.665,-09.807,-00.020827,+00.010586,-00.205585*66\r\n'"
1711642273.4594567,0,1711642273,458690404,imu1_frame,0,0,0,,-0.582961367,0.689336155,-0.071499342,-0.424098519,"(0.0, 0.0, 0.0, 0.0, 0.0, 0.0, 0.0, 0.0, 0.0)",-0.016871,0.0127,-0.20879,"(0.0, 0.0, 0.0, 0.0, 0.0, 0.0, 0.0, 0.0, 0.0)",-0.763,-0.774,-9.943,"(0.0, 0.0, 0.0, 0.0, 0.0, 0.0, 0.0, 0.0, 0.0)",0,0,0,,-0.2427,0.1337,-0.306,"(0.0, 0.0, 0.0, 0.0, 0.0, 0.0, 0.0, 0.0, 0.0)","$VNYMR,-092.624,-002.410,-000.561,-00.2427,+00.1337,-00.3060,-00.763,-00.774,-09.943,-00.016871,+00.012700,-00.208794*6C\r\n'"
1711642273.484691,0,1711642273,484123706,imu1_frame,0,0,0,,-0.469909464,0.7685640422478869,-0.00958067,-0.434053706,"(0.0, 0.0, 0.0, 0.0, 0.0, 0.0, 0.0, 0.0, 0.0)",-0.010693,0.009056,-0.21333,"(0.0, 0.0, 0.0, 0.0, 0.0, 0.0, 0.0, 0.0, 0.0)",-0.52,-0.644,-9.756,"(0.0, 0.0, 0.0, 0.0, 0.0, 0.0, 0.0, 0.0, 0.0)",0,0,0,,-0.2415,0.1348,-0.2991,"(0.0, 0.0, 0.0, 0.0, 0.0, 0.0, 0.0, 0.0, 0.0)","$VNYMR,-092.926,-002.399,-000.563,-00.2415,+00.1348,-00.2991,-00.520,-00.644,-09.756,-00.010693,+00.009056,-00.213337*6A\r\n'"
1711642273.5101776,0,1711642273,508476257,imu1_frame,0,0,0,,-0.346624794,0.8295163504198197,0.050704995,-0.434951584,"(0.0, 0.0, 0.0, 0.0, 0.0, 0.0, 0.0, 0.0, 0.0)",-0.013339,0.013531,-0.21027,"(0.0, 0.0, 0.0, 0.0, 0.0, 0.0, 0.0, 0.0, 0.0)",-0.631,-0.171,-9.866,"(0.0, 0.0, 0.0, 0.0, 0.0, 0.0, 0.0, 0.0, 0.0)",0,0,0,,-0.2427,0.13,-0.306,"(0.0, 0.0, 0.0, 0.0, 0.0, 0.0, 0.0, 0.0, 0.0)","$VNYMR,-093.229,-002.385,-000.559,-00.2427,+00.1300,-00.3060,-00.631,-00.171,-09.866,-00.013339,+00.013531,-00.210273*65\r\n'"
1711642273.5344758,0,1711642273,533724069,imu1_frame,0,0,0,,-0.216267221,0.8714933184473109,0.11175924884066282,-0.425720278,"(0.0, 0.0, 0.0, 0.0, 0.0, 0.0, 0.0, 0.0, 0.0)",-0.010253,0.010327,-0.21052,"(0.0, 0.0, 0.0, 0.0, 0.0, 0.0, 0.0, 0.0, 0.0)",-0.548,-0.239,-9.851,"(0.0, 0.0, 0.0, 0.0, 0.0, 0.0, 0.0, 0.0, 0.0)",0,0,0,,-0.2403,0.136,-0.3059,"(0.0, 0.0, 0.0, 0.0, 0.0, 0.0, 0.0, 0.0, 0.0)","$VNYMR,-093.533,-002.375,-000.554,-00.2403,+00.1360,-00.3059,-00.548,-00.239,-09.851,-00.010253,+00.010327,-00.210525*6F\r\n'"
1711642273.559155,0,1711642273,558412313,imu1_frame,0,0,0,,-0.079759921,0.8935755047290971,0.17238248623414137,-0.406749863,"(0.0, 0.0, 0.0, 0.0, 0.0, 0.0, 0.0, 0.0, 0.0)",-0.011923,0.007287,-0.21287,"(0.0, 0.0, 0.0, 0.0, 0.0, 0.0, 0.0, 0.0, 0.0)",-0.523,-0.472,-9.738,"(0.0, 0.0, 0.0, 0.0, 0.0, 0.0, 0.0, 0.0, 0.0)",0,0,0,,-0.2438,0.1337,-0.306,"(0.0, 0.0, 0.0, 0.0, 0.0, 0.0, 0.0, 0.0, 0.0)","$VNYMR,-093.841,-002.367,-000.549,-00.2438,+00.1337,-00.3060,-00.523,-00.472,-09.738,-00.011923,+00.007287,-00.212876*65\r\n'"
1711642273.5842783,0,1711642273,583772897,imu1_frame,0,0,0,,0.058614615,0.8947891222281491,0.23076793550727315,-0.377707444,"(0.0, 0.0, 0.0, 0.0, 0.0, 0.0, 0.0, 0.0, 0.0)",-0.007702,0.005256,-0.21803,"(0.0, 0.0, 0.0, 0.0, 0.0, 0.0, 0.0, 0.0, 0.0)",-0.482,-0.56,-9.897,"(0.0, 0.0, 0.0, 0.0, 0.0, 0.0, 0.0, 0.0, 0.0)",0,0,0,,-0.245,0.1361,-0.3129,"(0.0, 0.0, 0.0, 0.0, 0.0, 0.0, 0.0, 0.0, 0.0)","$VNYMR,-094.150,-002.362,-000.545,-00.2450,+00.1361,-00.3129,-00.482,-00.560,-09.897,-00.007702,+00.005256,-00.218036*63\r\n'"
1711642273.6088965,0,1711642273,608414173,imu1_frame,0,0,0,,0.1958179204588164,0.8749334592313524,0.2834019693648428,-0.340338225,"(0.0, 0.0, 0.0, 0.0, 0.0, 0.0, 0.0, 0.0, 0.0)",-0.006602,0.00755,-0.21707,"(0.0, 0.0, 0.0, 0.0, 0.0, 0.0, 0.0, 0.0, 0.0)",-0.417,-0.654,-10.048,"(0.0, 0.0, 0.0, 0.0, 0.0, 0.0, 0.0, 0.0, 0.0)",0,0,0,,-0.245,0.1386,-0.3061,"(0.0, 0.0, 0.0, 0.0, 0.0, 0.0, 0.0, 0.0, 0.0)","$VNYMR,-094.461,-002.357,-000.538,-00.2450,+00.1386,-00.3061,-00.417,-00.654,-10.048,-00.006602,+00.007550,-00.217074*6C\r\n'"
1711642273.6368358,0,1711642273,636446714,imu1_frame,0,0,0,,0.3296678118552531,0.8332432210505109,0.3306829132739864,-0.296097415,"(0.0, 0.0, 0.0, 0.0, 0.0, 0.0, 0.0, 0.0, 0.0)",-0.007442,0.007297,-0.22139,"(0.0, 0.0, 0.0, 0.0, 0.0, 0.0, 0.0, 0.0, 0.0)",-0.428,-0.754,-9.907,"(0.0, 0.0, 0.0, 0.0, 0.0, 0.0, 0.0, 0.0, 0.0)",0,0,0,,-0.2352,0.1287,-0.3276,"(0.0, 0.0, 0.0, 0.0, 0.0, 0.0, 0.0, 0.0, 0.0)","$VNYMR,-094.775,-002.350,-000.531,-00.2352,+00.1287,-00.3276,-00.428,-00.754,-09.907,-00.007442,+00.007297,-00.221391*64\r\n'"
1711642273.6588066,0,1711642273,658411502,imu1_frame,0,0,0,,0.4560207685132643,0.771122146,0.37228341950965504,-0.242529894,"(0.0, 0.0, 0.0, 0.0, 0.0, 0.0, 0.0, 0.0, 0.0)",-0.01079,0.005739,-0.22399,"(0.0, 0.0, 0.0, 0.0, 0.0, 0.0, 0.0, 0.0, 0.0)",-0.522,-0.888,-9.961,"(0.0, 0.0, 0.0, 0.0, 0.0, 0.0, 0.0, 0.0, 0.0)",0,0,0,,-0.2328,0.1274,-0.3275,"(0.0, 0.0, 0.0, 0.0, 0.0, 0.0, 0.0, 0.0, 0.0)","$VNYMR,-095.090,-002.347,-000.528,-00.2328,+00.1274,-00.3275,-00.522,-00.888,-09.961,-00.010790,+00.005739,-00.223991*61\r\n'"
1711642273.684299,0,1711642273,683598518,imu1_frame,0,0,0,,0.5729254471407749,0.6882369328126141,0.4055488515426009,-0.18334799,"(0.0, 0.0, 0.0, 0.0, 0.0, 0.0, 0.0, 0.0, 0.0)",-0.005524,0.006477,-0.22811,"(0.0, 0.0, 0.0, 0.0, 0.0, 0.0, 0.0, 0.0, 0.0)",-0.519,-0.812,-9.779,"(0.0, 0.0, 0.0, 0.0, 0.0, 0.0, 0.0, 0.0, 0.0)",0,0,0,,-0.2352,0.1262,-0.3206,"(0.0, 0.0, 0.0, 0.0, 0.0, 0.0, 0.0, 0.0, 0.0)","$VNYMR,-095.411,-002.342,-000.523,-00.2352,+00.1262,-00.3206,-00.519,-00.812,-09.779,-00.005524,+00.006477,-00.228114*6D\r\n'"
1711642273.7092016,0,1711642273,708523035,imu1_frame,0,0,0,,0.6758046462001677,0.5872741815101213,0.42995947917672256,-0.116326962,"(0.0, 0.0, 0.0, 0.0, 0.0, 0.0, 0.0, 0.0, 0.0)",-0.012426,0.002192,-0.22673,"(0.0, 0.0, 0.0, 0.0, 0.0, 0.0, 0.0, 0.0, 0.0)",-0.495,-0.682,-9.627,"(0.0, 0.0, 0.0, 0.0, 0.0, 0.0, 0.0, 0.0, 0.0)",0,0,0,,-0.2328,0.1237,-0.3233,"(0.0, 0.0, 0.0, 0.0, 0.0, 0.0, 0.0, 0.0, 0.0)","$VNYMR,-095.733,-002.341,-000.523,-00.2328,+00.1237,-00.3233,-00.495,-00.682,-09.627,-00.012426,+00.002192,-00.226732*6D\r\n'"
1711642273.735008,0,1711642273,734328985,imu1_frame,0,0,0,,0.7629163665137582,0.4698965070895295,0.44190483635992217,-0.043312884,"(0.0, 0.0, 0.0, 0.0, 0.0, 0.0, 0.0, 0.0, 0.0)",-0.011413,0.000125,-0.22784,"(0.0, 0.0, 0.0, 0.0, 0.0, 0.0, 0.0, 0.0, 0.0)",-0.506,-0.801,-9.516,"(0.0, 0.0, 0.0, 0.0, 0.0, 0.0, 0.0, 0.0, 0.0)",0,0,0,,-0.2329,0.12,-0.3163,"(0.0, 0.0, 0.0, 0.0, 0.0, 0.0, 0.0, 0.0, 0.0)","$VNYMR,-096.061,-002.345,-000.523,-00.2329,+00.1200,-00.3163,-00.506,-00.801,-09.516,-00.011413,+00.000125,-00.227846*60\r\n'"
1711642273.7601583,0,1711642273,759470224,imu1_frame,0,0,0,,0.8306875924019884,0.3379552925669662,0.44133317788078785,0.031134709843016167,"(0.0, 0.0, 0.0, 0.0, 0.0, 0.0, 0.0, 0.0, 0.0)",-0.008873,-0.001406,-0.23586,"(0.0, 0.0, 0.0, 0.0, 0.0, 0.0, 0.0, 0.0, 0.0)",-0.538,-0.927,-9.572,"(0.0, 0.0, 0.0, 0.0, 0.0, 0.0, 0.0, 0.0, 0.0)",0,0,0,,-0.2293,0.1162,-0.3133,"(0.0, 0.0, 0.0, 0.0, 0.0, 0.0, 0.0, 0.0, 0.0)","$VNYMR,-096.394,-002.349,-000.522,-00.2293,+00.1162,-00.3133,-00.538,-00.927,-09.572,-00.008873,-00.001406,-00.235868*62\r\n'"
1711642273.7839856,0,1711642273,783545494,imu1_frame,0,0,0,,0.8758361801956737,0.19572454392781227,0.42886171502677495,0.1033465904072051,"(0.0, 0.0, 0.0, 0.0, 0.0, 0.0, 0.0, 0.0, 0.0)",-0.008471,0.002179,-0.23373,"(0.0, 0.0, 0.0, 0.0, 0.0, 0.0, 0.0, 0.0, 0.0)",-0.46,-0.502,-9.254,"(0.0, 0.0, 0.0, 0.0, 0.0, 0.0, 0.0, 0.0, 0.0)",0,0,0,,-0.2282,0.1124,-0.3231,"(0.0, 0.0, 0.0, 0.0, 0.0, 0.0, 0.0, 0.0, 0.0)","$VNYMR,-096.729,-002.351,-000.519,-00.2282,+00.1124,-00.3231,-00.460,-00.502,-09.254,-00.008471,+00.002179,-00.233731*65\r\n'"
1711642273.8088415,0,1711642273,808469295,imu1_frame,0,0,0,,0.8959897437531079,0.046429037537918966,0.40638412406046354,0.1729123109386722,"(0.0, 0.0, 0.0, 0.0, 0.0, 0.0, 0.0, 0.0, 0.0)",-0.012127,0.003444,-0.23146,"(0.0, 0.0, 0.0, 0.0, 0.0, 0.0, 0.0, 0.0, 0.0)",-0.351,-0.37,-9.281,"(0.0, 0.0, 0.0, 0.0, 0.0, 0.0, 0.0, 0.0, 0.0)",0,0,0,,-0.2281,0.1211,-0.3175,"(0.0, 0.0, 0.0, 0.0, 0.0, 0.0, 0.0, 0.0, 0.0)","$VNYMR,-097.065,-002.349,-000.518,-00.2281,+00.1211,-00.3175,-00.351,-00.370,-09.281,-00.012127,+00.003444,-00.231466*6C\r\n'"
1711642273.8345091,0,1711642273,833943367,imu1_frame,0,0,0,,0.8902542892699268,-0.103805551,0.3732380565842471,0.23951004382359378,"(0.0, 0.0, 0.0, 0.0, 0.0, 0.0, 0.0, 0.0, 0.0)",-0.019743,0.005608,-0.22952,"(0.0, 0.0, 0.0, 0.0, 0.0, 0.0, 0.0, 0.0, 0.0)",-0.35,-0.594,-9.582,"(0.0, 0.0, 0.0, 0.0, 0.0, 0.0, 0.0, 0.0, 0.0)",0,0,0,,-0.2293,0.1174,-0.3161,"(0.0, 0.0, 0.0, 0.0, 0.0, 0.0, 0.0, 0.0, 0.0)","$VNYMR,-097.398,-002.346,-000.522,-00.2293,+00.1174,-00.3161,-00.350,-00.594,-09.582,-00.019743,+00.005608,-00.229527*6A\r\n'"
1711642273.858923,0,1711642273,858518123,imu1_frame,0,0,0,,0.8582466177243178,-0.250369973,0.3314308909466971,0.3014650627905842,"(0.0, 0.0, 0.0, 0.0, 0.0, 0.0, 0.0, 0.0, 0.0)",-0.017268,0.008153,-0.2341,"(0.0, 0.0, 0.0, 0.0, 0.0, 0.0, 0.0, 0.0, 0.0)",-0.317,-0.841,-9.521,"(0.0, 0.0, 0.0, 0.0, 0.0, 0.0, 0.0, 0.0, 0.0)",0,0,0,,-0.2306,0.11,-0.3134,"(0.0, 0.0, 0.0, 0.0, 0.0, 0.0, 0.0, 0.0, 0.0)","$VNYMR,-097.727,-002.338,-000.531,-00.2306,+00.1100,-00.3134,-00.317,-00.841,-09.521,-00.017268,+00.008153,-00.234108*63\r\n'"
1711642273.8858578,0,1711642273,885429620,imu1_frame,0,0,0,,0.8021197356795401,-0.388135844,0.28033053530266333,0.3568883396371956,"(0.0, 0.0, 0.0, 0.0, 0.0, 0.0, 0.0, 0.0, 0.0)",-0.021608,0.009953,-0.22994,"(0.0, 0.0, 0.0, 0.0, 0.0, 0.0, 0.0, 0.0, 0.0)",-0.262,-0.69,-9.791,"(0.0, 0.0, 0.0, 0.0, 0.0, 0.0, 0.0, 0.0, 0.0)",0,0,0,,-0.2293,0.1149,-0.3189,"(0.0, 0.0, 0.0, 0.0, 0.0, 0.0, 0.0, 0.0, 0.0)","$VNYMR,-098.052,-002.328,-000.543,-00.2293,+00.1149,-00.3189,-00.262,-00.690,-09.791,-00.021608,+00.009953,-00.229942*67\r\n'"
1711642273.9091938,0,1711642273,908465385,imu1_frame,0,0,0,,0.7249457320826342,-0.512147861,0.21936660147737677,0.4050142571237854,"(0.0, 0.0, 0.0, 0.0, 0.0, 0.0, 0.0, 0.0, 0.0)",-0.024866,0.011332,-0.21839,"(0.0, 0.0, 0.0, 0.0, 0.0, 0.0, 0.0, 0.0, 0.0)",-0.34,-0.479,-9.916,"(0.0, 0.0, 0.0, 0.0, 0.0, 0.0, 0.0, 0.0, 0.0)",0,0,0,,-0.2258,0.1124,-0.3216,"(0.0, 0.0, 0.0, 0.0, 0.0, 0.0, 0.0, 0.0, 0.0)","$VNYMR,-098.369,-002.319,-000.562,-00.2258,+00.1124,-00.3216,-00.340,-00.479,-09.916,-00.024866,+00.011332,-00.218393*62\r\n'"
1711642273.9353337,0,1711642273,934456586,imu1_frame,0,0,0,,0.6312403382357827,-0.618860817,0.15271558495249762,0.44184259061420295,"(0.0, 0.0, 0.0, 0.0, 0.0, 0.0, 0.0, 0.0, 0.0)",-0.024661,0.012339,-0.21,"(0.0, 0.0, 0.0, 0.0, 0.0, 0.0, 0.0, 0.0, 0.0)",-0.46,-0.287,-9.664,"(0.0, 0.0, 0.0, 0.0, 0.0, 0.0, 0.0, 0.0, 0.0)",0,0,0,,-0.2223,0.1048,-0.3228,"(0.0, 0.0, 0.0, 0.0, 0.0, 0.0, 0.0, 0.0, 0.0)","$VNYMR,-098.678,-002.309,-000.580,-00.2223,+00.1048,-00.3228,-00.460,-00.287,-09.664,-00.024661,+00.012339,-00.210004*6C\r\n'"
1711642273.9608448,0,1711642273,959977149,imu1_frame,0,0,0,,0.5256323595818844,-0.707563329,0.08529213,0.46453203362098955,"(0.0, 0.0, 0.0, 0.0, 0.0, 0.0, 0.0, 0.0, 0.0)",-0.015501,0.009191,-0.20664,"(0.0, 0.0, 0.0, 0.0, 0.0, 0.0, 0.0, 0.0, 0.0)",-0.375,-0.223,-9.332,"(0.0, 0.0, 0.0, 0.0, 0.0, 0.0, 0.0, 0.0, 0.0)",0,0,0,,-0.2235,0.1024,-0.3172,"(0.0, 0.0, 0.0, 0.0, 0.0, 0.0, 0.0, 0.0, 0.0)","$VNYMR,-098.984,-002.298,-000.586,-00.2235,+00.1024,-00.3172,-00.375,-00.223,-09.332,-00.015501,+00.009191,-00.206644*6D\r\n'"
1711642273.984696,0,1711642273,984269142,imu1_frame,0,0,0,,0.4094064833952647,-0.777342034,0.018205848,0.4772779484420998,"(0.0, 0.0, 0.0, 0.0, 0.0, 0.0, 0.0, 0.0, 0.0)",-0.010729,0.012031,-0.21018,"(0.0, 0.0, 0.0, 0.0, 0.0, 0.0, 0.0, 0.0, 0.0)",-0.22,-0.318,-9.151,"(0.0, 0.0, 0.0, 0.0, 0.0, 0.0, 0.0, 0.0, 0.0)",0,0,0,,-0.2222,0.1123,-0.32,"(0.0, 0.0, 0.0, 0.0, 0.0, 0.0, 0.0, 0.0, 0.0)","$VNYMR,-099.286,-002.283,-000.588,-00.2222,+00.1123,-00.3200,-00.220,-00.318,-09.151,-00.010729,+00.012031,-00.210188*64\r\n'"
1711642274.0148532,0,1711642274,12729167,imu1_frame,0,0,0,,0.2832063700866665,-0.828695566,-0.051159042,0.48004225166966075,"(0.0, 0.0, 0.0, 0.0, 0.0, 0.0, 0.0, 0.0, 0.0)",-0.010835,0.009959,-0.21689,"(0.0, 0.0, 0.0, 0.0, 0.0, 0.0, 0.0, 0.0, 0.0)",-0.196,-0.509,-9.182,"(0.0, 0.0, 0.0, 0.0, 0.0, 0.0, 0.0, 0.0, 0.0)",0,0,0,,-0.2223,0.1012,-0.3186,"(0.0, 0.0, 0.0, 0.0, 0.0, 0.0, 0.0, 0.0, 0.0)","$VNYMR,-099.591,-002.268,-000.589,-00.2223,+00.1012,-00.3186,-00.196,-00.509,-09.182,-00.010835,+00.009959,-00.216896*67\r\n'"
1711642274.0348105,0,1711642274,34414291,imu1_frame,0,0,0,,0.148166843,-0.859263072,-0.122856317,0.47394080403485195,"(0.0, 0.0, 0.0, 0.0, 0.0, 0.0, 0.0, 0.0, 0.0)",-0.012227,0.015333,-0.2211,"(0.0, 0.0, 0.0, 0.0, 0.0, 0.0, 0.0, 0.0, 0.0)",-0.237,-0.571,-9.612,"(0.0, 0.0, 0.0, 0.0, 0.0, 0.0, 0.0, 0.0, 0.0)",0,0,0,,-0.2199,0.1023,-0.3185,"(0.0, 0.0, 0.0, 0.0, 0.0, 0.0, 0.0, 0.0, 0.0)","$VNYMR,-099.899,-002.250,-000.594,-00.2199,+00.1023,-00.3185,-00.237,-00.571,-09.612,-00.012227,+00.015333,-00.221103*6E\r\n'"
1711642274.0591063,0,1711642274,58509349,imu1_frame,0,0,0,,0.01121658,-0.867141509,-0.194647766,0.45831434593025355,"(0.0, 0.0, 0.0, 0.0, 0.0, 0.0, 0.0, 0.0, 0.0)",-0.018351,0.019595,-0.21044,"(0.0, 0.0, 0.0, 0.0, 0.0, 0.0, 0.0, 0.0, 0.0)",-0.397,-0.471,-9.904,"(0.0, 0.0, 0.0, 0.0, 0.0, 0.0, 0.0, 0.0, 0.0)",0,0,0,,-0.2199,0.1023,-0.3199,"(0.0, 0.0, 0.0, 0.0, 0.0, 0.0, 0.0, 0.0, 0.0)","$VNYMR,-100.202,-002.230,-000.604,-00.2199,+00.1023,-00.3199,-00.397,-00.471,-09.904,-00.018351,+00.019595,-00.210449*61\r\n'"
1711642274.084227,0,1711642274,83616733,imu1_frame,0,0,0,,-0.124941039,-0.853933084,-0.263436763,0.431032593,"(0.0, 0.0, 0.0, 0.0, 0.0, 0.0, 0.0, 0.0, 0.0)",-0.016269,0.016682,-0.21285,"(0.0, 0.0, 0.0, 0.0, 0.0, 0.0, 0.0, 0.0, 0.0)",-0.394,-0.373,-9.549,"(0.0, 0.0, 0.0, 0.0, 0.0, 0.0, 0.0, 0.0, 0.0)",0,0,0,,-0.2187,0.1023,-0.3142,"(0.0, 0.0, 0.0, 0.0, 0.0, 0.0, 0.0, 0.0, 0.0)","$VNYMR,-100.508,-002.211,-000.610,-00.2187,+00.1023,-00.3142,-00.394,-00.373,-09.549,-00.016269,+00.016682,-00.212857*6F\r\n'"
1711642274.1109986,0,1711642274,109628438,imu1_frame,0,0,0,,-0.258332712,-0.81982975,-0.327294346,0.3924561156672378,"(0.0, 0.0, 0.0, 0.0, 0.0, 0.0, 0.0, 0.0, 0.0)",-0.01141,0.011842,-0.21201,"(0.0, 0.0, 0.0, 0.0, 0.0, 0.0, 0.0, 0.0, 0.0)",-0.269,-0.429,-9.413,"(0.0, 0.0, 0.0, 0.0, 0.0, 0.0, 0.0, 0.0, 0.0)",0,0,0,,-0.2211,0.106,-0.3214,"(0.0, 0.0, 0.0, 0.0, 0.0, 0.0, 0.0, 0.0, 0.0)","$VNYMR,-100.821,-002.193,-000.610,-00.2211,+00.1060,-00.3214,-00.269,-00.429,-09.413,-00.011410,+00.011842,-00.212019*66\r\n'"
1711642274.1339245,0,1711642274,133552789,imu1_frame,0,0,0,,-0.384203381,-0.766268026,-0.382510222,0.34482895,"(0.0, 0.0, 0.0, 0.0, 0.0, 0.0, 0.0, 0.0, 0.0)",-0.000105,0.011783,-0.22058,"(0.0, 0.0, 0.0, 0.0, 0.0, 0.0, 0.0, 0.0, 0.0)",-0.274,-0.556,-9.328,"(0.0, 0.0, 0.0, 0.0, 0.0, 0.0, 0.0, 0.0, 0.0)",0,0,0,,-0.2163,0.1047,-0.3225,"(0.0, 0.0, 0.0, 0.0, 0.0, 0.0, 0.0, 0.0, 0.0)","$VNYMR,-101.139,-002.176,-000.600,-00.2163,+00.1047,-00.3225,-00.274,-00.556,-09.328,-00.000105,+00.011783,-00.220583*62\r\n'"
1711642274.1592631,0,1711642274,158551216,imu1_frame,0,0,0,,-0.498412008,-0.695698398,-0.427517602,0.2912351455722199,"(0.0, 0.0, 0.0, 0.0, 0.0, 0.0, 0.0, 0.0, 0.0)",0.008883,0.011363,-0.22448,"(0.0, 0.0, 0.0, 0.0, 0.0, 0.0, 0.0, 0.0, 0.0)",-0.216,-0.52,-9.369,"(0.0, 0.0, 0.0, 0.0, 0.0, 0.0, 0.0, 0.0, 0.0)",0,0,0,,-0.2211,0.1024,-0.3171,"(0.0, 0.0, 0.0, 0.0, 0.0, 0.0, 0.0, 0.0, 0.0)","$VNYMR,-101.458,-002.160,-000.580,-00.2211,+00.1024,-00.3171,-00.216,-00.520,-09.369,+00.008883,+00.011363,-00.224487*6F\r\n'"
1711642274.1866682,0,1711642274,186200141,imu1_frame,0,0,0,,-0.599374543,-0.609446955,-0.463930869,0.2325784043426795,"(0.0, 0.0, 0.0, 0.0, 0.0, 0.0, 0.0, 0.0, 0.0)",0.008924,0.011926,-0.22568,"(0.0, 0.0, 0.0, 0.0, 0.0, 0.0, 0.0, 0.0, 0.0)",-0.125,-0.686,-9.734,"(0.0, 0.0, 0.0, 0.0, 0.0, 0.0, 0.0, 0.0, 0.0)",0,0,0,,-0.2187,0.1023,-0.317,"(0.0, 0.0, 0.0, 0.0, 0.0, 0.0, 0.0, 0.0, 0.0)","$VNYMR,-101.777,-002.145,-000.556,-00.2187,+00.1023,-00.3170,-00.125,-00.686,-09.734,+00.008924,+00.011926,-00.225686*62\r\n'"
1711642274.2089055,0,1711642274,208357095,imu1_frame,0,0,0,,-0.684733916,-0.509415479,-0.492494947,0.17054049998877405,"(0.0, 0.0, 0.0, 0.0, 0.0, 0.0, 0.0, 0.0, 0.0)",0.004334,0.013819,-0.22337,"(0.0, 0.0, 0.0, 0.0, 0.0, 0.0, 0.0, 0.0, 0.0)",-0.274,-0.627,-9.762,"(0.0, 0.0, 0.0, 0.0, 0.0, 0.0, 0.0, 0.0, 0.0)",0,0,0,,-0.22,0.0974,-0.3115,"(0.0, 0.0, 0.0, 0.0, 0.0, 0.0, 0.0, 0.0, 0.0)","$VNYMR,-102.094,-002.129,-000.531,-00.2200,+00.0974,-00.3115,-00.274,-00.627,-09.762,+00.004334,+00.013819,-00.223370*68\r\n'"
1711642274.233682,0,1711642274,233350753,imu1_frame,0,0,0,,-0.753284246,-0.396999978,-0.514274017,0.10235281356026313,"(0.0, 0.0, 0.0, 0.0, 0.0, 0.0, 0.0, 0.0, 0.0)",-0.004072,0.014094,-0.2165,"(0.0, 0.0, 0.0, 0.0, 0.0, 0.0, 0.0, 0.0, 0.0)",-0.407,-0.359,-9.916,"(0.0, 0.0, 0.0, 0.0, 0.0, 0.0, 0.0, 0.0, 0.0)",0,0,0,,-0.2187,0.1023,-0.3156,"(0.0, 0.0, 0.0, 0.0, 0.0, 0.0, 0.0, 0.0, 0.0)","$VNYMR,-102.408,-002.114,-000.514,-00.2187,+00.1023,-00.3156,-00.407,-00.359,-09.916,-00.004072,+00.014094,-00.216500*68\r\n'"
1711642274.2587361,0,1711642274,258385419,imu1_frame,0,0,0,,-0.803211787,-0.273186488,-0.528589321,0.028518379710897074,"(0.0, 0.0, 0.0, 0.0, 0.0, 0.0, 0.0, 0.0, 0.0)",-0.010365,0.016265,-0.21496,"(0.0, 0.0, 0.0, 0.0, 0.0, 0.0, 0.0, 0.0, 0.0)",-0.376,-0.458,-9.737,"(0.0, 0.0, 0.0, 0.0, 0.0, 0.0, 0.0, 0.0, 0.0)",0,0,0,,-0.2176,0.0948,-0.31,"(0.0, 0.0, 0.0, 0.0, 0.0, 0.0, 0.0, 0.0, 0.0)","$VNYMR,-102.722,-002.097,-000.505,-00.2176,+00.0948,-00.3100,-00.376,-00.458,-09.737,-00.010365,+00.016265,-00.214967*6A\r\n'"
1711642274.2837493,0,1711642274,283381938,imu1_frame,0,0,0,,-0.831329687,-0.140690731,-0.535349857,-0.049976001,"(0.0, 0.0, 0.0, 0.0, 0.0, 0.0, 0.0, 0.0, 0.0)",-0.011669,0.018299,-0.21387,"(0.0, 0.0, 0.0, 0.0, 0.0, 0.0, 0.0, 0.0, 0.0)",-0.334,-0.516,-9.44,"(0.0, 0.0, 0.0, 0.0, 0.0, 0.0, 0.0, 0.0, 0.0)",0,0,0,,-0.2199,0.1011,-0.3101,"(0.0, 0.0, 0.0, 0.0, 0.0, 0.0, 0.0, 0.0, 0.0)","$VNYMR,-103.034,-002.074,-000.506,-00.2199,+00.1011,-00.3101,-00.334,-00.516,-09.440,-00.011669,+00.018299,-00.213875*6F\r\n'"
1711642274.3088408,0,1711642274,308279275,imu1_frame,0,0,0,,-0.837507715,-0.007948171,-0.531250003,-0.127636549,"(0.0, 0.0, 0.0, 0.0, 0.0, 0.0, 0.0, 0.0, 0.0)",-0.003685,0.017814,-0.21474,"(0.0, 0.0, 0.0, 0.0, 0.0, 0.0, 0.0, 0.0, 0.0)",-0.424,-0.461,-9.506,"(0.0, 0.0, 0.0, 0.0, 0.0, 0.0, 0.0, 0.0, 0.0)",0,0,0,,-0.221,0.1085,-0.3102,"(0.0, 0.0, 0.0, 0.0, 0.0, 0.0, 0.0, 0.0, 0.0)","$VNYMR,-103.343,-002.049,-000.504,-00.2210,+00.1085,-00.3102,-00.424,-00.461,-09.506,-00.003685,+00.017814,-00.214744*63\r\n'"
1711642274.3336806,0,1711642274,333368062,imu1_frame,0,0,0,,-0.824243263,0.12074672121813547,-0.515398343,-0.201016965,"(0.0, 0.0, 0.0, 0.0, 0.0, 0.0, 0.0, 0.0, 0.0)",0.000707,0.018695,-0.21454,"(0.0, 0.0, 0.0, 0.0, 0.0, 0.0, 0.0, 0.0, 0.0)",-0.351,-0.585,-9.77,"(0.0, 0.0, 0.0, 0.0, 0.0, 0.0, 0.0, 0.0, 0.0)",0,0,0,,-0.22,0.0912,-0.3072,"(0.0, 0.0, 0.0, 0.0, 0.0, 0.0, 0.0, 0.0, 0.0)","$VNYMR,-103.654,-002.026,-000.490,-00.2200,+00.0912,-00.3072,-00.351,-00.585,-09.770,+00.000707,+00.018695,-00.214543*6A\r\n'"
1711642274.3588853,0,1711642274,358426094,imu1_frame,0,0,0,,-0.791697622,0.24310899968567112,-0.491649202,-0.269061241,"(0.0, 0.0, 0.0, 0.0, 0.0, 0.0, 0.0, 0.0, 0.0)",0.009153,0.019716,-0.21767,"(0.0, 0.0, 0.0, 0.0, 0.0, 0.0, 0.0, 0.0, 0.0)",-0.218,-0.725,-9.852,"(0.0, 0.0, 0.0, 0.0, 0.0, 0.0, 0.0, 0.0, 0.0)",0,0,0,,-0.2235,0.0975,-0.3018,"(0.0, 0.0, 0.0, 0.0, 0.0, 0.0, 0.0, 0.0, 0.0)","$VNYMR,-103.966,-002.000,-000.466,-00.2235,+00.0975,-00.3018,-00.218,-00.725,-09.852,+00.009153,+00.019716,-00.217675*69\r\n'"
1711642274.384048,0,1711642274,383524656,imu1_frame,0,0,0,,-0.742587979,0.3568024539331277,-0.458281257,-0.333516703,"(0.0, 0.0, 0.0, 0.0, 0.0, 0.0, 0.0, 0.0, 0.0)",0.0069,0.018052,-0.2188,"(0.0, 0.0, 0.0, 0.0, 0.0, 0.0, 0.0, 0.0, 0.0)",-0.245,-0.619,-9.788,"(0.0, 0.0, 0.0, 0.0, 0.0, 0.0, 0.0, 0.0, 0.0)",0,0,0,,-0.221,0.1098,-0.3088,"(0.0, 0.0, 0.0, 0.0, 0.0, 0.0, 0.0, 0.0, 0.0)","$VNYMR,-104.276,-001.977,-000.440,-00.2210,+00.1098,-00.3088,-00.245,-00.619,-09.788,+00.006900,+00.018052,-00.218802*67\r\n'"
1711642274.4088743,0,1711642274,408431053,imu1_frame,0,0,0,,-0.678270728,0.46226096854180604,-0.412437954,-0.395169016,"(0.0, 0.0, 0.0, 0.0, 0.0, 0.0, 0.0, 0.0, 0.0)",0.003064,0.012802,-0.22023,"(0.0, 0.0, 0.0, 0.0, 0.0, 0.0, 0.0, 0.0, 0.0)",-0.296,-0.5,-9.583,"(0.0, 0.0, 0.0, 0.0, 0.0, 0.0, 0.0, 0.0, 0.0)",0,0,0,,-0.2211,0.1024,-0.2961,"(0.0, 0.0, 0.0, 0.0, 0.0, 0.0, 0.0, 0.0, 0.0)","$VNYMR,-104.586,-001.961,-000.419,-00.2211,+00.1024,-00.2961,-00.296,-00.500,-09.583,+00.003064,+00.012802,-00.220233*6B\r\n'"
1711642274.4349093,0,1711642274,434268236,imu1_frame,0,0,0,,-0.598715173,0.558579277,-0.353551712,-0.452250506,"(0.0, 0.0, 0.0, 0.0, 0.0, 0.0, 0.0, 0.0, 0.0)",-0.004387,0.008189,-0.21595,"(0.0, 0.0, 0.0, 0.0, 0.0, 0.0, 0.0, 0.0, 0.0)",-0.304,-0.441,-9.54,"(0.0, 0.0, 0.0, 0.0, 0.0, 0.0, 0.0, 0.0, 0.0)",0,0,0,,-0.2211,0.1024,-0.3073,"(0.0, 0.0, 0.0, 0.0, 0.0, 0.0, 0.0, 0.0, 0.0)","$VNYMR,-104.897,-001.951,-000.406,-00.2211,+00.1024,-00.3073,-00.304,-00.441,-09.540,-00.004387,+00.008189,-00.215957*60\r\n'"
1711642274.458658,0,1711642274,458159923,imu1_frame,0,0,0,,-0.504943154,0.6423818219985774,-0.284461551,-0.501457507,"(0.0, 0.0, 0.0, 0.0, 0.0, 0.0, 0.0, 0.0, 0.0)",-0.00501,0.00577,-0.21238,"(0.0, 0.0, 0.0, 0.0, 0.0, 0.0, 0.0, 0.0, 0.0)",-0.301,-0.434,-9.322,"(0.0, 0.0, 0.0, 0.0, 0.0, 0.0, 0.0, 0.0, 0.0)",0,0,0,,-0.2236,0.0938,-0.3018,"(0.0, 0.0, 0.0, 0.0, 0.0, 0.0, 0.0, 0.0, 0.0)","$VNYMR,-105.208,-001.943,-000.398,-00.2236,+00.0938,-00.3018,-00.301,-00.434,-09.322,-00.005010,+00.005770,-00.212382*62\r\n'"
1711642274.484131,0,1711642274,483462095,imu1_frame,0,0,0,,-0.40098722,0.7108458288604772,-0.208280297,-0.539005357,"(0.0, 0.0, 0.0, 0.0, 0.0, 0.0, 0.0, 0.0, 0.0)",-0.003042,0.004471,-0.21108,"(0.0, 0.0, 0.0, 0.0, 0.0, 0.0, 0.0, 0.0, 0.0)",-0.128,-0.398,-9.149,"(0.0, 0.0, 0.0, 0.0, 0.0, 0.0, 0.0, 0.0, 0.0)",0,0,0,,-0.2235,0.1,-0.3032,"(0.0, 0.0, 0.0, 0.0, 0.0, 0.0, 0.0, 0.0, 0.0)","$VNYMR,-105.518,-001.938,-000.389,-00.2235,+00.1000,-00.3032,-00.128,-00.398,-09.149,-00.003042,+00.004471,-00.211089*6E\r\n'"
1711642274.5102744,0,1711642274,508295774,imu1_frame,0,0,0,,-0.28978712,0.7627249205742556,-0.128632491,-0.563673489,"(0.0, 0.0, 0.0, 0.0, 0.0, 0.0, 0.0, 0.0, 0.0)",0.00381,0.001097,-0.21481,"(0.0, 0.0, 0.0, 0.0, 0.0, 0.0, 0.0, 0.0, 0.0)",-0.103,-0.551,-9.174,"(0.0, 0.0, 0.0, 0.0, 0.0, 0.0, 0.0, 0.0, 0.0)",0,0,0,,-0.2247,0.0963,-0.3005,"(0.0, 0.0, 0.0, 0.0, 0.0, 0.0, 0.0, 0.0, 0.0)","$VNYMR,-105.828,-001.935,-000.375,-00.2247,+00.0963,-00.3005,-00.103,-00.551,-09.174,+00.003810,+00.001097,-00.214812*69\r\n'"
1711642274.5336158,0,1711642274,533306598,imu1_frame,0,0,0,,-0.171107992,0.7973975938020633,-0.046539214,-0.576812997,"(0.0, 0.0, 0.0, 0.0, 0.0, 0.0, 0.0, 0.0, 0.0)",0.007346,0.002159,-0.22639,"(0.0, 0.0, 0.0, 0.0, 0.0, 0.0, 0.0, 0.0, 0.0)",-0.203,-0.985,-9.34,"(0.0, 0.0, 0.0, 0.0, 0.0, 0.0, 0.0, 0.0, 0.0)",0,0,0,,-0.2247,0.0963,-0.2977,"(0.0, 0.0, 0.0, 0.0, 0.0, 0.0, 0.0, 0.0, 0.0)","$VNYMR,-106.143,-001.931,-000.357,-00.2247,+00.0963,-00.2977,-00.203,-00.985,-09.340,+00.007346,+00.002159,-00.226393*6B\r\n'"
1711642274.5593998,0,1711642274,558500051,imu1_frame,0,0,0,,-0.047704324,0.8128459532663862,0.037158223338580515,-0.579331529,"(0.0, 0.0, 0.0, 0.0, 0.0, 0.0, 0.0, 0.0, 0.0)",0.002326,0.00644,-0.2256,"(0.0, 0.0, 0.0, 0.0, 0.0, 0.0, 0.0, 0.0, 0.0)",-0.17,-0.878,-9.363,"(0.0, 0.0, 0.0, 0.0, 0.0, 0.0, 0.0, 0.0, 0.0)",0,0,0,,-0.227,0.105,-0.2922,"(0.0, 0.0, 0.0, 0.0, 0.0, 0.0, 0.0, 0.0, 0.0)","$VNYMR,-106.458,-001.924,-000.341,-00.2270,+00.1050,-00.2922,-00.170,-00.878,-09.363,+00.002326,+00.006440,-00.225609*61\r\n'"
1711642274.584761,0,1711642274,584336996,imu1_frame,0,0,0,,0.077491546,0.8090487282555383,0.12231563774422172,-0.569626281,"(0.0, 0.0, 0.0, 0.0, 0.0, 0.0, 0.0, 0.0, 0.0)",-0.001639,0.00734,-0.22412,"(0.0, 0.0, 0.0, 0.0, 0.0, 0.0, 0.0, 0.0, 0.0)",-0.288,-0.617,-9.527,"(0.0, 0.0, 0.0, 0.0, 0.0, 0.0, 0.0, 0.0, 0.0)",0,0,0,,-0.2295,0.0965,-0.2895,"(0.0, 0.0, 0.0, 0.0, 0.0, 0.0, 0.0, 0.0, 0.0)","$VNYMR,-106.773,-001.917,-000.329,-00.2295,+00.0965,-00.2895,-00.288,-00.617,-09.527,-00.001639,+00.007340,-00.224128*65\r\n'"
1711642274.609098,0,1711642274,608498334,imu1_frame,0,0,0,,0.20049726070256405,0.7859870342244919,0.20600491587951256,-0.547345599,"(0.0, 0.0, 0.0, 0.0, 0.0, 0.0, 0.0, 0.0, 0.0)",-0.008209,0.006249,-0.21794,"(0.0, 0.0, 0.0, 0.0, 0.0, 0.0, 0.0, 0.0, 0.0)",-0.286,-0.397,-9.612,"(0.0, 0.0, 0.0, 0.0, 0.0, 0.0, 0.0, 0.0, 0.0)",0,0,0,,-0.2295,0.0965,-0.2951,"(0.0, 0.0, 0.0, 0.0, 0.0, 0.0, 0.0, 0.0, 0.0)","$VNYMR,-107.087,-001.910,-000.319,-00.2295,+00.0965,-00.2951,-00.286,-00.397,-09.612,-00.008209,+00.006249,-00.217947*65\r\n'"
1711642274.6351304,0,1711642274,634627103,imu1_frame,0,0,0,,0.3186135292399485,0.743015831,0.28627700767766473,-0.514255159,"(0.0, 0.0, 0.0, 0.0, 0.0, 0.0, 0.0, 0.0, 0.0)",-0.006148,0.007677,-0.21468,"(0.0, 0.0, 0.0, 0.0, 0.0, 0.0, 0.0, 0.0, 0.0)",-0.196,-0.46,-9.417,"(0.0, 0.0, 0.0, 0.0, 0.0, 0.0, 0.0, 0.0, 0.0)",0,0,0,,-0.2319,0.0941,-0.2952,"(0.0, 0.0, 0.0, 0.0, 0.0, 0.0, 0.0, 0.0, 0.0)","$VNYMR,-107.403,-001.899,-000.308,-00.2319,+00.0941,-00.2952,-00.196,-00.460,-09.417,-00.006148,+00.007677,-00.214688*68\r\n'"
1711642274.6598606,0,1711642274,659293174,imu1_frame,0,0,0,,0.4268512992045633,0.6831193225564152,0.35989795490955817,-0.47076472,"(0.0, 0.0, 0.0, 0.0, 0.0, 0.0, 0.0, 0.0, 0.0)",0.004057,0.008679,-0.21822,"(0.0, 0.0, 0.0, 0.0, 0.0, 0.0, 0.0, 0.0, 0.0)",-0.125,-0.678,-9.363,"(0.0, 0.0, 0.0, 0.0, 0.0, 0.0, 0.0, 0.0, 0.0)",0,0,0,,-0.2343,0.0941,-0.2925,"(0.0, 0.0, 0.0, 0.0, 0.0, 0.0, 0.0, 0.0, 0.0)","$VNYMR,-107.718,-001.887,-000.293,-00.2343,+00.0941,-00.2925,-00.125,-00.678,-09.363,+00.004057,+00.008679,-00.218229*6C\r\n'"
1711642274.686099,0,1711642274,685112237,imu1_frame,0,0,0,,0.5242507702924508,0.6072895732062884,0.4270631884640232,-0.417106146,"(0.0, 0.0, 0.0, 0.0, 0.0, 0.0, 0.0, 0.0, 0.0)",0.008434,0.008168,-0.22492,"(0.0, 0.0, 0.0, 0.0, 0.0, 0.0, 0.0, 0.0, 0.0)",-0.053,-0.901,-9.419,"(0.0, 0.0, 0.0, 0.0, 0.0, 0.0, 0.0, 0.0, 0.0)",0,0,0,,-0.2342,0.1015,-0.2883,"(0.0, 0.0, 0.0, 0.0, 0.0, 0.0, 0.0, 0.0, 0.0)","$VNYMR,-108.035,-001.874,-000.276,-00.2342,+00.1015,-00.2883,-00.053,-00.901,-09.419,+00.008434,+00.008168,-00.224924*61\r\n'"
1711642274.7111223,0,1711642274,710378408,imu1_frame,0,0,0,,0.608942844,0.5169796533711973,0.487576612,-0.352405588,"(0.0, 0.0, 0.0, 0.0, 0.0, 0.0, 0.0, 0.0, 0.0)",-0.000447,0.009442,-0.22481,"(0.0, 0.0, 0.0, 0.0, 0.0, 0.0, 0.0, 0.0, 0.0)",-0.2,-0.846,-9.613,"(0.0, 0.0, 0.0, 0.0, 0.0, 0.0, 0.0, 0.0, 0.0)",0,0,0,,-0.2354,0.1065,-0.2996,"(0.0, 0.0, 0.0, 0.0, 0.0, 0.0, 0.0, 0.0, 0.0)","$VNYMR,-108.350,-001.861,-000.265,-00.2354,+00.1065,-00.2996,-00.200,-00.846,-09.613,-00.000447,+00.009442,-00.224815*69\r\n'"
1711642274.735128,0,1711642274,734496355,imu1_frame,0,0,0,,0.6777462910571561,0.41472841922872095,0.5394136816801353,-0.27873497,"(0.0, 0.0, 0.0, 0.0, 0.0, 0.0, 0.0, 0.0, 0.0)",-0.011267,0.012375,-0.21579,"(0.0, 0.0, 0.0, 0.0, 0.0, 0.0, 0.0, 0.0, 0.0)",-0.326,-0.558,-9.904,"(0.0, 0.0, 0.0, 0.0, 0.0, 0.0, 0.0, 0.0, 0.0)",0,0,0,,-0.2367,0.0979,-0.2982,"(0.0, 0.0, 0.0, 0.0, 0.0, 0.0, 0.0, 0.0, 0.0)","$VNYMR,-108.661,-001.846,-000.259,-00.2367,+00.0979,-00.2982,-00.326,-00.558,-09.904,-00.011267,+00.012375,-00.215798*6F\r\n'"
1711642274.761901,0,1711642274,760881900,imu1_frame,0,0,0,,0.7299850385621579,0.303373745,0.5801293240507319,-0.196306347,"(0.0, 0.0, 0.0, 0.0, 0.0, 0.0, 0.0, 0.0, 0.0)",-0.016796,0.008647,-0.21277,"(0.0, 0.0, 0.0, 0.0, 0.0, 0.0, 0.0, 0.0, 0.0)",-0.3,-0.542,-9.662,"(0.0, 0.0, 0.0, 0.0, 0.0, 0.0, 0.0, 0.0, 0.0)",0,0,0,,-0.2403,0.0956,-0.2871,"(0.0, 0.0, 0.0, 0.0, 0.0, 0.0, 0.0, 0.0, 0.0)","$VNYMR,-108.971,-001.832,-000.256,-00.2403,+00.0956,-00.2871,-00.300,-00.542,-09.662,-00.016796,+00.008647,-00.212775*6F\r\n'"
1711642274.7874684,0,1711642274,787047147,imu1_frame,0,0,0,,0.7664025852549122,0.18349574918178996,0.6068679484024947,-0.103284464,"(0.0, 0.0, 0.0, 0.0, 0.0, 0.0, 0.0, 0.0, 0.0)",-0.012251,0.005552,-0.2159,"(0.0, 0.0, 0.0, 0.0, 0.0, 0.0, 0.0, 0.0, 0.0)",-0.235,-0.711,-9.677,"(0.0, 0.0, 0.0, 0.0, 0.0, 0.0, 0.0, 0.0, 0.0)",0,0,0,,-0.2438,0.1043,-0.2985,"(0.0, 0.0, 0.0, 0.0, 0.0, 0.0, 0.0, 0.0, 0.0)","$VNYMR,-109.284,-001.824,-000.260,-00.2438,+00.1043,-00.2985,-00.235,-00.711,-09.677,-00.012251,+00.005552,-00.215902*6D\r\n'"
1711642274.8099084,0,1711642274,809361696,imu1_frame,0,0,0,,0.7846198648006927,0.057035268,0.6173402635365726,-0.003105628,"(0.0, 0.0, 0.0, 0.0, 0.0, 0.0, 0.0, 0.0, 0.0)",-0.011262,0.0017,-0.22487,"(0.0, 0.0, 0.0, 0.0, 0.0, 0.0, 0.0, 0.0, 0.0)",-0.222,-0.973,-9.576,"(0.0, 0.0, 0.0, 0.0, 0.0, 0.0, 0.0, 0.0, 0.0)",0,0,0,,-0.2426,0.0993,-0.2858,"(0.0, 0.0, 0.0, 0.0, 0.0, 0.0, 0.0, 0.0, 0.0)","$VNYMR,-109.601,-001.820,-000.269,-00.2426,+00.0993,-00.2858,-00.222,-00.973,-09.576,-00.011262,+00.001700,-00.224879*61\r\n'"
1711642274.8353891,0,1711642274,834625005,imu1_frame,0,0,0,,0.7829722412057795,-0.07167443,0.6099976024163852,0.098590926,"(0.0, 0.0, 0.0, 0.0, 0.0, 0.0, 0.0, 0.0, 0.0)",-0.010308,-0.000346,-0.22952,"(0.0, 0.0, 0.0, 0.0, 0.0, 0.0, 0.0, 0.0, 0.0)",-0.162,-0.975,-9.303,"(0.0, 0.0, 0.0, 0.0, 0.0, 0.0, 0.0, 0.0, 0.0)",0,0,0,,-0.2415,0.0981,-0.2872,"(0.0, 0.0, 0.0, 0.0, 0.0, 0.0, 0.0, 0.0, 0.0)","$VNYMR,-109.923,-001.819,-000.276,-00.2415,+00.0981,-00.2872,-00.162,-00.975,-09.303,-00.010308,-00.000346,-00.229521*64\r\n'"
1711642274.8613257,0,1711642274,860763788,imu1_frame,0,0,0,,0.7615821834887858,-0.197412927,0.5851244807374605,0.1965961754396442,"(0.0, 0.0, 0.0, 0.0, 0.0, 0.0, 0.0, 0.0, 0.0)",-0.014909,0.002073,-0.22299,"(0.0, 0.0, 0.0, 0.0, 0.0, 0.0, 0.0, 0.0, 0.0)",-0.217,-0.656,-9.654,"(0.0, 0.0, 0.0, 0.0, 0.0, 0.0, 0.0, 0.0, 0.0)",0,0,0,,-0.2438,0.0981,-0.2845,"(0.0, 0.0, 0.0, 0.0, 0.0, 0.0, 0.0, 0.0, 0.0)","$VNYMR,-110.245,-001.821,-000.280,-00.2438,+00.0981,-00.2845,-00.217,-00.656,-09.654,-00.014909,+00.002073,-00.222997*62\r\n'"
1711642274.8847167,0,1711642274,884189605,imu1_frame,0,0,0,,0.72140876,-0.317093071,0.5447009918761584,0.28691848032156636,"(0.0, 0.0, 0.0, 0.0, 0.0, 0.0, 0.0, 0.0, 0.0)",-0.008519,-0.001005,-0.22169,"(0.0, 0.0, 0.0, 0.0, 0.0, 0.0, 0.0, 0.0, 0.0)",-0.404,-0.575,-9.55,"(0.0, 0.0, 0.0, 0.0, 0.0, 0.0, 0.0, 0.0, 0.0)",0,0,0,,-0.2475,0.0958,-0.2916,"(0.0, 0.0, 0.0, 0.0, 0.0, 0.0, 0.0, 0.0, 0.0)","$VNYMR,-110.570,-001.825,-000.276,-00.2475,+00.0958,-00.2916,-00.404,-00.575,-09.550,-00.008519,-00.001005,-00.221692*68\r\n'"
1711642274.9115655,0,1711642274,911056280,imu1_frame,0,0,0,,0.6624915611173177,-0.428352624,0.4922640477606927,0.36782477937675795,"(0.0, 0.0, 0.0, 0.0, 0.0, 0.0, 0.0, 0.0, 0.0)",0.005432,-0.00063,-0.23471,"(0.0, 0.0, 0.0, 0.0, 0.0, 0.0, 0.0, 0.0, 0.0)",-0.215,-0.708,-9.513,"(0.0, 0.0, 0.0, 0.0, 0.0, 0.0, 0.0, 0.0, 0.0)",0,0,0,,-0.2487,0.0933,-0.2917,"(0.0, 0.0, 0.0, 0.0, 0.0, 0.0, 0.0, 0.0, 0.0)","$VNYMR,-110.901,-001.827,-000.262,-00.2487,+00.0933,-00.2917,-00.215,-00.708,-09.513,+00.005432,-00.000630,-00.234711*61\r\n'"
1711642274.9362388,0,1711642274,935530185,imu1_frame,0,0,0,,0.5842782570314016,-0.530132231,0.4279770037397844,0.440924506,"(0.0, 0.0, 0.0, 0.0, 0.0, 0.0, 0.0, 0.0, 0.0)",0.002403,0.000934,-0.24283,"(0.0, 0.0, 0.0, 0.0, 0.0, 0.0, 0.0, 0.0, 0.0)",-0.245,-0.861,-9.461,"(0.0, 0.0, 0.0, 0.0, 0.0, 0.0, 0.0, 0.0, 0.0)",0,0,0,,-0.2498,0.0958,-0.2847,"(0.0, 0.0, 0.0, 0.0, 0.0, 0.0, 0.0, 0.0, 0.0)","$VNYMR,-111.239,-001.826,-000.246,-00.2498,+00.0958,-00.2847,-00.245,-00.861,-09.461,+00.002403,+00.000934,-00.242832*66\r\n'"
1711642274.9613187,0,1711642274,960627555,imu1_frame,0,0,0,,0.48771421680851124,-0.618017605,0.35217595146820657,0.5061236827892492,"(0.0, 0.0, 0.0, 0.0, 0.0, 0.0, 0.0, 0.0, 0.0)",-0.007212,0.006865,-0.23551,"(0.0, 0.0, 0.0, 0.0, 0.0, 0.0, 0.0, 0.0, 0.0)",-0.42,-0.603,-9.878,"(0.0, 0.0, 0.0, 0.0, 0.0, 0.0, 0.0, 0.0, 0.0)",0,0,0,,-0.2535,0.0898,-0.2779,"(0.0, 0.0, 0.0, 0.0, 0.0, 0.0, 0.0, 0.0, 0.0)","$VNYMR,-111.575,-001.820,-000.239,-00.2535,+00.0898,-00.2779,-00.420,-00.603,-09.878,-00.007212,+00.006865,-00.235514*6A\r\n'"
1711642274.9843996,0,1711642274,983667373,imu1_frame,0,0,0,,0.3790420208918049,-0.687167367,0.26889424557979197,0.5584120702790107,"(0.0, 0.0, 0.0, 0.0, 0.0, 0.0, 0.0, 0.0, 0.0)",-0.008091,0.011532,-0.22405,"(0.0, 0.0, 0.0, 0.0, 0.0, 0.0, 0.0, 0.0, 0.0)",-0.317,-0.329,-10.043,"(0.0, 0.0, 0.0, 0.0, 0.0, 0.0, 0.0, 0.0, 0.0)",0,0,0,,-0.2546,0.1022,-0.2822,"(0.0, 0.0, 0.0, 0.0, 0.0, 0.0, 0.0, 0.0, 0.0)","$VNYMR,-111.910,-001.811,-000.228,-00.2546,+00.1022,-00.2822,-00.317,-00.329,-10.043,-00.008091,+00.011532,-00.224056*60\r\n'"
1711642275.0100374,0,1711642275,9414196,imu1_frame,0,0,0,,0.26218981801496655,-0.735400846,0.1807227480573203,0.5981482953533341,"(0.0, 0.0, 0.0, 0.0, 0.0, 0.0, 0.0, 0.0, 0.0)",-0.001373,0.014232,-0.22435,"(0.0, 0.0, 0.0, 0.0, 0.0, 0.0, 0.0, 0.0, 0.0)",-0.231,-0.323,-9.609,"(0.0, 0.0, 0.0, 0.0, 0.0, 0.0, 0.0, 0.0, 0.0)",0,0,0,,-0.2535,0.0923,-0.2849,"(0.0, 0.0, 0.0, 0.0, 0.0, 0.0, 0.0, 0.0, 0.0)","$VNYMR,-112.241,-001.797,-000.215,-00.2535,+00.0923,-00.2849,-00.231,-00.323,-09.609,-00.001373,+00.014232,-00.224350*6D\r\n'"
1711642275.0354428,0,1711642275,34895420,imu1_frame,0,0,0,,0.14153584674016081,-0.763332055,0.088303437,0.624094769,"(0.0, 0.0, 0.0, 0.0, 0.0, 0.0, 0.0, 0.0, 0.0)",0.005721,0.0083,-0.22959,"(0.0, 0.0, 0.0, 0.0, 0.0, 0.0, 0.0, 0.0, 0.0)",-0.261,-0.675,-9.367,"(0.0, 0.0, 0.0, 0.0, 0.0, 0.0, 0.0, 0.0, 0.0)",0,0,0,,-0.2571,0.0887,-0.2878,"(0.0, 0.0, 0.0, 0.0, 0.0, 0.0, 0.0, 0.0, 0.0)","$VNYMR,-112.568,-001.782,-000.201,-00.2571,+00.0887,-00.2878,-00.261,-00.675,-09.367,+00.005721,+00.008300,-00.229590*68\r\n'"
1711642275.0593712,0,1711642275,58687925,imu1_frame,0,0,0,,0.018589558512519352,-0.770702756,-0.007796365,0.636875896,"(0.0, 0.0, 0.0, 0.0, 0.0, 0.0, 0.0, 0.0, 0.0)",0.005672,0.009038,-0.23507,"(0.0, 0.0, 0.0, 0.0, 0.0, 0.0, 0.0, 0.0, 0.0)",-0.163,-0.821,-9.381,"(0.0, 0.0, 0.0, 0.0, 0.0, 0.0, 0.0, 0.0, 0.0)",0,0,0,,-0.2583,0.0838,-0.2864,"(0.0, 0.0, 0.0, 0.0, 0.0, 0.0, 0.0, 0.0, 0.0)","$VNYMR,-112.895,-001.764,-000.187,-00.2583,+00.0838,-00.2864,-00.163,-00.821,-09.381,+00.005672,+00.009038,-00.235071*69\r\n'"
1711642275.0855088,0,1711642275,84739446,imu1_frame,0,0,0,,-0.103265385,-0.758661231,-0.107018702,0.6342841584167243,"(0.0, 0.0, 0.0, 0.0, 0.0, 0.0, 0.0, 0.0, 0.0)",-0.00633,0.012331,-0.22897,"(0.0, 0.0, 0.0, 0.0, 0.0, 0.0, 0.0, 0.0, 0.0)",-0.344,-1.033,-9.834,"(0.0, 0.0, 0.0, 0.0, 0.0, 0.0, 0.0, 0.0, 0.0)",0,0,0,,-0.2618,0.0974,-0.2838,"(0.0, 0.0, 0.0, 0.0, 0.0, 0.0, 0.0, 0.0, 0.0)","$VNYMR,-113.217,-001.747,-000.180,-00.2618,+00.0974,-00.2838,-00.344,-01.033,-09.834,-00.006330,+00.012331,-00.228979*6C\r\n'"
1711642275.1115398,0,1711642275,110761880,imu1_frame,0,0,0,,-0.220326247,-0.728990499,-0.205401926,0.6146862990990893,"(0.0, 0.0, 0.0, 0.0, 0.0, 0.0, 0.0, 0.0, 0.0)",-0.012993,0.013053,-0.22231,"(0.0, 0.0, 0.0, 0.0, 0.0, 0.0, 0.0, 0.0, 0.0)",-0.395,-0.687,-9.61,"(0.0, 0.0, 0.0, 0.0, 0.0, 0.0, 0.0, 0.0, 0.0)",0,0,0,,-0.2618,0.095,-0.288,"(0.0, 0.0, 0.0, 0.0, 0.0, 0.0, 0.0, 0.0, 0.0)","$VNYMR,-113.534,-001.734,-000.177,-00.2618,+00.0950,-00.2880,-00.395,-00.687,-09.610,-00.012993,+00.013053,-00.222310*60\r\n'"
1711642275.1342866,0,1711642275,133677244,imu1_frame,0,0,0,,-0.331006385,-0.683040951,-0.299778587,0.5779469102051906,"(0.0, 0.0, 0.0, 0.0, 0.0, 0.0, 0.0, 0.0, 0.0)",-0.008785,0.008377,-0.21841,"(0.0, 0.0, 0.0, 0.0, 0.0, 0.0, 0.0, 0.0, 0.0)",-0.378,-0.529,-9.641,"(0.0, 0.0, 0.0, 0.0, 0.0, 0.0, 0.0, 0.0, 0.0)",0,0,0,,-0.2642,0.0963,-0.2965,"(0.0, 0.0, 0.0, 0.0, 0.0, 0.0, 0.0, 0.0, 0.0)","$VNYMR,-113.850,-001.726,-000.175,-00.2642,+00.0963,-00.2965,-00.378,-00.529,-09.641,-00.008785,+00.008377,-00.218419*61\r\n'"
1711642275.159615,0,1711642275,159069299,imu1_frame,0,0,0,,-0.433963939,-0.622839374,-0.385652132,0.5244223935348381,"(0.0, 0.0, 0.0, 0.0, 0.0, 0.0, 0.0, 0.0, 0.0)",0.001346,-0.002054,-0.22492,"(0.0, 0.0, 0.0, 0.0, 0.0, 0.0, 0.0, 0.0, 0.0)",-0.318,-0.773,-9.453,"(0.0, 0.0, 0.0, 0.0, 0.0, 0.0, 0.0, 0.0, 0.0)",0,0,0,,-0.2726,0.0941,-0.2829,"(0.0, 0.0, 0.0, 0.0, 0.0, 0.0, 0.0, 0.0, 0.0)","$VNYMR,-114.174,-001.726,-000.164,-00.2726,+00.0941,-00.2829,-00.318,-00.773,-09.453,+00.001346,-00.002054,-00.224926*6D\r\n'"
1711642275.1841664,0,1711642275,183614015,imu1_frame,0,0,0,,-0.527468821,-0.547479338,-0.461331212,0.457401934,"(0.0, 0.0, 0.0, 0.0, 0.0, 0.0, 0.0, 0.0, 0.0)",0.008457,-0.005555,-0.23779,"(0.0, 0.0, 0.0, 0.0, 0.0, 0.0, 0.0, 0.0, 0.0)",-0.351,-1.115,-9.337,"(0.0, 0.0, 0.0, 0.0, 0.0, 0.0, 0.0, 0.0, 0.0)",0,0,0,,-0.2666,0.0951,-0.2966,"(0.0, 0.0, 0.0, 0.0, 0.0, 0.0, 0.0, 0.0, 0.0)","$VNYMR,-114.508,-001.729,-000.144,-00.2666,+00.0951,-00.2966,-00.351,-01.115,-09.337,+00.008457,-00.005555,-00.237792*60\r\n'"
1711642275.2090862,0,1711642275,208547830,imu1_frame,0,0,0,,-0.608226698,-0.459571423,-0.523998351,0.37984222837197007,"(0.0, 0.0, 0.0, 0.0, 0.0, 0.0, 0.0, 0.0, 0.0)",0.009251,-0.004597,-0.23992,"(0.0, 0.0, 0.0, 0.0, 0.0, 0.0, 0.0, 0.0, 0.0)",-0.385,-1.185,-9.57,"(0.0, 0.0, 0.0, 0.0, 0.0, 0.0, 0.0, 0.0, 0.0)",0,0,0,,-0.2592,0.0886,-0.301,"(0.0, 0.0, 0.0, 0.0, 0.0, 0.0, 0.0, 0.0, 0.0)","$VNYMR,-114.843,-001.735,-000.120,-00.2592,+00.0886,-00.3010,-00.385,-01.185,-09.570,+00.009251,-00.004597,-00.239926*63\r\n'"
1711642275.2339203,0,1711642275,233578681,imu1_frame,0,0,0,,-0.676398737,-0.359519586,-0.572563634,0.2922350095845298,"(0.0, 0.0, 0.0, 0.0, 0.0, 0.0, 0.0, 0.0, 0.0)",0.007022,-0.004276,-0.24202,"(0.0, 0.0, 0.0, 0.0, 0.0, 0.0, 0.0, 0.0, 0.0)",-0.547,-0.914,-9.756,"(0.0, 0.0, 0.0, 0.0, 0.0, 0.0, 0.0, 0.0, 0.0)",0,0,0,,-0.2606,0.0785,-0.301,"(0.0, 0.0, 0.0, 0.0, 0.0, 0.0, 0.0, 0.0, 0.0)","$VNYMR,-115.183,-001.746,-000.094,-00.2606,+00.0785,-00.3010,-00.547,-00.914,-09.756,+00.007022,-00.004276,-00.242023*60\r\n'"
1711642275.2601404,0,1711642275,259360074,imu1_frame,0,0,0,,-0.727931642,-0.248011891,-0.607481372,0.19892714685924753,"(0.0, 0.0, 0.0, 0.0, 0.0, 0.0, 0.0, 0.0, 0.0)",0.008972,-0.003669,-0.24163,"(0.0, 0.0, 0.0, 0.0, 0.0, 0.0, 0.0, 0.0, 0.0)",-0.479,-0.532,-9.548,"(0.0, 0.0, 0.0, 0.0, 0.0, 0.0, 0.0, 0.0, 0.0)",0,0,0,,-0.263,0.0799,-0.3011,"(0.0, 0.0, 0.0, 0.0, 0.0, 0.0, 0.0, 0.0, 0.0)","$VNYMR,-115.529,-001.755,-000.064,-00.2630,+00.0799,-00.3011,-00.479,-00.532,-09.548,+00.008972,-00.003669,-00.241638*68\r\n'"
1711642275.2843394,0,1711642275,283905267,imu1_frame,0,0,0,,-0.760048368,-0.125763592,-0.629707937,0.099889492,"(0.0, 0.0, 0.0, 0.0, 0.0, 0.0, 0.0, 0.0, 0.0)",0.012743,-5.40E-05,-0.24753,"(0.0, 0.0, 0.0, 0.0, 0.0, 0.0, 0.0, 0.0, 0.0)",-0.48,-0.809,-9.475,"(0.0, 0.0, 0.0, 0.0, 0.0, 0.0, 0.0, 0.0, 0.0)",0,0,0,,-0.2617,0.0874,-0.3011,"(0.0, 0.0, 0.0, 0.0, 0.0, 0.0, 0.0, 0.0, 0.0)","$VNYMR,-115.882,-001.759,-000.035,-00.2617,+00.0874,-00.3011,-00.480,-00.809,-09.475,+00.012743,-00.000054,-00.247535*6D\r\n'"
1711642275.3093026,0,1711642275,308643579,imu1_frame,0,0,0,,-0.770399226,0.004942023,-0.637517436,-0.005668109,"(0.0, 0.0, 0.0, 0.0, 0.0, 0.0, 0.0, 0.0, 0.0)",0.01098,-0.00128,-0.25703,"(0.0, 0.0, 0.0, 0.0, 0.0, 0.0, 0.0, 0.0, 0.0)",-0.498,-1.163,-9.357,"(0.0, 0.0, 0.0, 0.0, 0.0, 0.0, 0.0, 0.0, 0.0)",0,0,0,,-0.2666,0.085,-0.3027,"(0.0, 0.0, 0.0, 0.0, 0.0, 0.0, 0.0, 0.0, 0.0)","$VNYMR,-116.241,-001.759,-000.013,-00.2666,+00.0850,-00.3027,-00.498,-01.163,-09.357,+00.010980,-00.001280,-00.257031*69\r\n'"
1711642275.3341546,0,1711642275,333587884,imu1_frame,0,0,0,,-0.756167138,0.13892736080169835,-0.628848462,-0.116017495,"(0.0, 0.0, 0.0, 0.0, 0.0, 0.0, 0.0, 0.0, 0.0)",0.001836,0.006595,-0.26438,"(0.0, 0.0, 0.0, 0.0, 0.0, 0.0, 0.0, 0.0, 0.0)",-0.434,-1.391,-9.446,"(0.0, 0.0, 0.0, 0.0, 0.0, 0.0, 0.0, 0.0, 0.0)",0,0,0,,-0.2643,0.0774,-0.3011,"(0.0, 0.0, 0.0, 0.0, 0.0, 0.0, 0.0, 0.0, 0.0)","$VNYMR,-116.599,-001.754,-000.004,-00.2643,+00.0774,-00.3011,-00.434,-01.391,-09.446,+00.001836,+00.006595,-00.264389*6B\r\n'"
1711642275.3589056,0,1711642275,358507871,imu1_frame,0,0,0,,-0.716124702,0.26897825643418927,-0.602817156,-0.226776509,"(0.0, 0.0, 0.0, 0.0, 0.0, 0.0, 0.0, 0.0, 0.0)",-0.012711,0.012903,-0.2627,"(0.0, 0.0, 0.0, 0.0, 0.0, 0.0, 0.0, 0.0, 0.0)",-0.295,-0.955,-9.564,"(0.0, 0.0, 0.0, 0.0, 0.0, 0.0, 0.0, 0.0, 0.0)",0,0,0,,-0.2668,0.0712,-0.2912,"(0.0, 0.0, 0.0, 0.0, 0.0, 0.0, 0.0, 0.0, 0.0)","$VNYMR,-116.955,-001.742,-000.003,-00.2668,+00.0712,-00.2912,-00.295,-00.955,-09.564,-00.012711,+00.012903,-00.262707*66\r\n'"
1711642275.3840907,0,1711642275,383584022,imu1_frame,0,0,0,,-0.653145023,0.38819019154029843,-0.558691633,-0.33252611,"(0.0, 0.0, 0.0, 0.0, 0.0, 0.0, 0.0, 0.0, 0.0)",-0.02303,0.012314,-0.24471,"(0.0, 0.0, 0.0, 0.0, 0.0, 0.0, 0.0, 0.0, 0.0)",-0.405,-0.723,-9.728,"(0.0, 0.0, 0.0, 0.0, 0.0, 0.0, 0.0, 0.0, 0.0)",0,0,0,,-0.2667,0.0813,-0.2998,"(0.0, 0.0, 0.0, 0.0, 0.0, 0.0, 0.0, 0.0, 0.0)","$VNYMR,-117.308,-001.726,-000.004,-00.2667,+00.0813,-00.2998,-00.405,-00.723,-09.728,-00.023030,+00.012314,-00.244718*69\r\n'"
1711642275.4088295,0,1711642275,408417940,imu1_frame,0,0,0,,-0.571280123,0.4934658922290978,-0.495774715,-0.429345858,"(0.0, 0.0, 0.0, 0.0, 0.0, 0.0, 0.0, 0.0, 0.0)",-0.017012,0.007875,-0.2398,"(0.0, 0.0, 0.0, 0.0, 0.0, 0.0, 0.0, 0.0, 0.0)",-0.468,-0.815,-9.585,"(0.0, 0.0, 0.0, 0.0, 0.0, 0.0, 0.0, 0.0, 0.0)",0,0,0,,-0.2705,0.0688,-0.2971,"(0.0, 0.0, 0.0, 0.0, 0.0, 0.0, 0.0, 0.0, 0.0)","$VNYMR,-117.656,-001.711,-000.009,-00.2705,+00.0688,-00.2971,-00.468,-00.815,-09.585,-00.017012,+00.007875,-00.239809*6E\r\n'"
1711642275.434048,0,1711642275,433555364,imu1_frame,0,0,0,,-0.473382908,0.5829490568563774,-0.415420832,-0.513326944,"(0.0, 0.0, 0.0, 0.0, 0.0, 0.0, 0.0, 0.0, 0.0)",-0.009752,0.005577,-0.24084,"(0.0, 0.0, 0.0, 0.0, 0.0, 0.0, 0.0, 0.0, 0.0)",-0.287,-0.737,-9.33,"(0.0, 0.0, 0.0, 0.0, 0.0, 0.0, 0.0, 0.0, 0.0)",0,0,0,,-0.2693,0.0674,-0.307,"(0.0, 0.0, 0.0, 0.0, 0.0, 0.0, 0.0, 0.0, 0.0)","$VNYMR,-118.005,-001.699,-000.013,-00.2693,+00.0674,-00.3070,-00.287,-00.737,-09.330,-00.009752,+00.005577,-00.240842*6F\r\n'"
1711642275.4591186,0,1711642275,458543300,imu1_frame,0,0,0,,-0.362344664,0.6550963121133015,-0.319692487,-0.580820007,"(0.0, 0.0, 0.0, 0.0, 0.0, 0.0, 0.0, 0.0, 0.0)",-0.012052,0.002039,-0.24262,"(0.0, 0.0, 0.0, 0.0, 0.0, 0.0, 0.0, 0.0, 0.0)",-0.351,-0.726,-9.388,"(0.0, 0.0, 0.0, 0.0, 0.0, 0.0, 0.0, 0.0, 0.0)",0,0,0,,-0.2705,0.0612,-0.2985,"(0.0, 0.0, 0.0, 0.0, 0.0, 0.0, 0.0, 0.0, 0.0)","$VNYMR,-118.355,-001.692,-000.017,-00.2705,+00.0612,-00.2985,-00.351,-00.726,-09.388,-00.012052,+00.002039,-00.242625*6B\r\n'"
1711642275.4854383,0,1711642275,484672784,imu1_frame,0,0,0,,-0.239784054,0.7074263553820456,-0.211373168,-0.63037524,"(0.0, 0.0, 0.0, 0.0, 0.0, 0.0, 0.0, 0.0, 0.0)",-0.018198,0.001316,-0.24134,"(0.0, 0.0, 0.0, 0.0, 0.0, 0.0, 0.0, 0.0, 0.0)",-0.273,-0.876,-9.21,"(0.0, 0.0, 0.0, 0.0, 0.0, 0.0, 0.0, 0.0, 0.0)",0,0,0,,-0.2693,0.0637,-0.3056,"(0.0, 0.0, 0.0, 0.0, 0.0, 0.0, 0.0, 0.0, 0.0)","$VNYMR,-118.702,-001.687,-000.028,-00.2693,+00.0637,-00.3056,-00.273,-00.876,-09.210,-00.018198,+00.001316,-00.241343*67\r\n'"
1711642275.5094767,0,1711642275,508770465,imu1_frame,0,0,0,,-0.108091908,0.7383957652639211,-0.092788783,-0.659149509,"(0.0, 0.0, 0.0, 0.0, 0.0, 0.0, 0.0, 0.0, 0.0)",-0.027675,0.004407,-0.24349,"(0.0, 0.0, 0.0, 0.0, 0.0, 0.0, 0.0, 0.0, 0.0)",-0.326,-0.98,-9.49,"(0.0, 0.0, 0.0, 0.0, 0.0, 0.0, 0.0, 0.0, 0.0)",0,0,0,,-0.2742,0.06,-0.3029,"(0.0, 0.0, 0.0, 0.0, 0.0, 0.0, 0.0, 0.0, 0.0)","$VNYMR,-119.047,-001.685,-000.048,-00.2742,+00.0600,-00.3029,-00.326,-00.980,-09.490,-00.027675,+00.004407,-00.243493*60\r\n'"
1711642275.5343318,0,1711642275,533680677,imu1_frame,0,0,0,,0.027266598,0.7437207964106471,0.029542166856989467,-0.667280428,"(0.0, 0.0, 0.0, 0.0, 0.0, 0.0, 0.0, 0.0, 0.0)",-0.025312,0.004765,-0.23947,"(0.0, 0.0, 0.0, 0.0, 0.0, 0.0, 0.0, 0.0, 0.0)",-0.367,-0.698,-9.346,"(0.0, 0.0, 0.0, 0.0, 0.0, 0.0, 0.0, 0.0, 0.0)",0,0,0,,-0.2706,0.0587,-0.3013,"(0.0, 0.0, 0.0, 0.0, 0.0, 0.0, 0.0, 0.0, 0.0)","$VNYMR,-119.391,-001.679,-000.070,-00.2706,+00.0587,-00.3013,-00.367,-00.698,-09.346,-00.025312,+00.004765,-00.239473*68\r\n'"
1711642276,0,1711642275,558426380,imu1_frame,0,0,0,,0.16095544981366602,0.7241448970455427,0.15173649259482275,-0.653210187,"(0.0, 0.0, 0.0, 0.0, 0.0, 0.0, 0.0, 0.0, 0.0)",-0.025147,0.008923,-0.23652,"(0.0, 0.0, 0.0, 0.0, 0.0, 0.0, 0.0, 0.0, 0.0)",-0.59,-0.736,-9.706,"(0.0, 0.0, 0.0, 0.0, 0.0, 0.0, 0.0, 0.0, 0.0)",0,0,0,,-0.2755,0.0525,-0.2958,"(0.0, 0.0, 0.0, 0.0, 0.0, 0.0, 0.0, 0.0, 0.0)","$VNYMR,-119.733,-001.672,-000.094,-00.2755,+00.0525,-00.2958,-00.590,-00.736,-09.706,-00.025147,+00.008923,-00.236521*6C\r\n'"
1711642275.5847652,0,1711642275,584373712,imu1_frame,0,0,0,,0.28516695776735884,0.6811374269066541,0.26659377219092373,-0.619402432,"(0.0, 0.0, 0.0, 0.0, 0.0, 0.0, 0.0, 0.0, 0.0)",-0.021206,0.006285,-0.23306,"(0.0, 0.0, 0.0, 0.0, 0.0, 0.0, 0.0, 0.0, 0.0)",-0.403,-0.486,-9.48,"(0.0, 0.0, 0.0, 0.0, 0.0, 0.0, 0.0, 0.0, 0.0)",0,0,0,,-0.2766,0.0626,-0.303,"(0.0, 0.0, 0.0, 0.0, 0.0, 0.0, 0.0, 0.0, 0.0)","$VNYMR,-120.074,-001.662,-000.109,-00.2766,+00.0626,-00.3030,-00.403,-00.486,-09.480,-00.021206,+00.006285,-00.233066*66\r\n'"
1711642275.609469,0,1711642275,608908176,imu1_frame,0,0,0,,0.39577288313114417,0.6182008307322303,0.37124244309114773,-0.568656844,"(0.0, 0.0, 0.0, 0.0, 0.0, 0.0, 0.0, 0.0, 0.0)",-0.009698,0.013334,-0.23281,"(0.0, 0.0, 0.0, 0.0, 0.0, 0.0, 0.0, 0.0, 0.0)",-0.381,-0.489,-9.554,"(0.0, 0.0, 0.0, 0.0, 0.0, 0.0, 0.0, 0.0, 0.0)",0,0,0,,-0.2767,0.0614,-0.3016,"(0.0, 0.0, 0.0, 0.0, 0.0, 0.0, 0.0, 0.0, 0.0)","$VNYMR,-120.414,-001.649,-000.114,-00.2767,+00.0614,-00.3016,-00.381,-00.489,-09.554,-00.009698,+00.013334,-00.232816*67\r\n'"
1711642275.633835,0,1711642275,633413791,imu1_frame,0,0,0,,0.4899520391522672,0.5393029667419448,0.46394564325816784,-0.503839011,"(0.0, 0.0, 0.0, 0.0, 0.0, 0.0, 0.0, 0.0, 0.0)",-0.007605,0.011954,-0.23499,"(0.0, 0.0, 0.0, 0.0, 0.0, 0.0, 0.0, 0.0, 0.0)",-0.372,-0.599,-9.722,"(0.0, 0.0, 0.0, 0.0, 0.0, 0.0, 0.0, 0.0, 0.0)",0,0,0,,-0.2779,0.0551,-0.3016,"(0.0, 0.0, 0.0, 0.0, 0.0, 0.0, 0.0, 0.0, 0.0)","$VNYMR,-120.754,-001.633,-000.108,-00.2779,+00.0551,-00.3016,-00.372,-00.599,-09.722,-00.007605,+00.011954,-00.234995*6A\r\n'"
1711642275.6591036,0,1711642275,658478260,imu1_frame,0,0,0,,0.5677173543947666,0.44574341097503883,0.5461612933408464,-0.425108996,"(0.0, 0.0, 0.0, 0.0, 0.0, 0.0, 0.0, 0.0, 0.0)",-0.000645,0.015323,-0.2389,"(0.0, 0.0, 0.0, 0.0, 0.0, 0.0, 0.0, 0.0, 0.0)",-0.221,-0.635,-9.692,"(0.0, 0.0, 0.0, 0.0, 0.0, 0.0, 0.0, 0.0, 0.0)",0,0,0,,-0.278,0.0488,-0.3016,"(0.0, 0.0, 0.0, 0.0, 0.0, 0.0, 0.0, 0.0, 0.0)","$VNYMR,-121.095,-001.613,-000.100,-00.2780,+00.0488,-00.3016,-00.221,-00.635,-09.692,-00.000645,+00.015323,-00.238901*6C\r\n'"
1711642275.6841278,0,1711642275,683488845,imu1_frame,0,0,0,,0.6276096179940894,0.34082652882137915,0.6157433000311121,-0.332871797,"(0.0, 0.0, 0.0, 0.0, 0.0, 0.0, 0.0, 0.0, 0.0)",0.001523,0.017571,-0.24424,"(0.0, 0.0, 0.0, 0.0, 0.0, 0.0, 0.0, 0.0, 0.0)",-0.32,-0.909,-9.731,"(0.0, 0.0, 0.0, 0.0, 0.0, 0.0, 0.0, 0.0, 0.0)",0,0,0,,-0.2792,0.0501,-0.3074,"(0.0, 0.0, 0.0, 0.0, 0.0, 0.0, 0.0, 0.0, 0.0)","$VNYMR,-121.435,-001.591,-000.094,-00.2792,+00.0501,-00.3074,-00.320,-00.909,-09.731,+00.001523,+00.017571,-00.244248*62\r\n'"
1711642275.715001,0,1711642275,714535474,imu1_frame,0,0,0,,0.6685093178741636,0.22628481043364673,0.6709641744740109,-0.227370959,"(0.0, 0.0, 0.0, 0.0, 0.0, 0.0, 0.0, 0.0, 0.0)",-0.004486,0.01847,-0.24505,"(0.0, 0.0, 0.0, 0.0, 0.0, 0.0, 0.0, 0.0, 0.0)",-0.369,-0.801,-9.547,"(0.0, 0.0, 0.0, 0.0, 0.0, 0.0, 0.0, 0.0, 0.0)",0,0,0,,-0.278,0.0488,-0.3102,"(0.0, 0.0, 0.0, 0.0, 0.0, 0.0, 0.0, 0.0, 0.0)","$VNYMR,-121.779,-001.567,-000.090,-00.2780,+00.0488,-00.3102,-00.369,-00.801,-09.547,-00.004486,+00.018470,-00.245056*6E\r\n'"
1711642275.733978,0,1711642275,733535051,imu1_frame,0,0,0,,0.6893869727006751,0.10907633037683162,0.707082271,-0.113501623,"(0.0, 0.0, 0.0, 0.0, 0.0, 0.0, 0.0, 0.0, 0.0)",-0.006288,0.01949,-0.23632,"(0.0, 0.0, 0.0, 0.0, 0.0, 0.0, 0.0, 0.0, 0.0)",-0.396,-0.501,-9.644,"(0.0, 0.0, 0.0, 0.0, 0.0, 0.0, 0.0, 0.0, 0.0)",0,0,0,,-0.2792,0.0488,-0.306,"(0.0, 0.0, 0.0, 0.0, 0.0, 0.0, 0.0, 0.0, 0.0)","$VNYMR,-122.119,-001.545,-000.087,-00.2792,+00.0488,-00.3060,-00.396,-00.501,-09.644,-00.006288,+00.019490,-00.236325*66\r\n'"
1711642275.7601218,0,1711642275,759304046,imu1_frame,0,0,0,,0.6907498299118905,-0.006370814,0.72305383,0.004152681,"(0.0, 0.0, 0.0, 0.0, 0.0, 0.0, 0.0, 0.0, 0.0)",-0.001532,0.012887,-0.23771,"(0.0, 0.0, 0.0, 0.0, 0.0, 0.0, 0.0, 0.0, 0.0)",-0.522,-0.624,-9.668,"(0.0, 0.0, 0.0, 0.0, 0.0, 0.0, 0.0, 0.0, 0.0)",0,0,0,,-0.2842,0.0427,-0.3004,"(0.0, 0.0, 0.0, 0.0, 0.0, 0.0, 0.0, 0.0, 0.0)","$VNYMR,-122.461,-001.525,-000.076,-00.2842,+00.0427,-00.3004,-00.522,-00.624,-09.668,-00.001532,+00.012887,-00.237710*61\r\n'"
1711642275.7839956,0,1711642275,783603668,imu1_frame,0,0,0,,0.6750771453059251,-0.115885325,0.7184555115141485,0.12109135940797736,"(0.0, 0.0, 0.0, 0.0, 0.0, 0.0, 0.0, 0.0, 0.0)",0.00906,0.010914,-0.24181,"(0.0, 0.0, 0.0, 0.0, 0.0, 0.0, 0.0, 0.0, 0.0)",-0.359,-0.572,-9.232,"(0.0, 0.0, 0.0, 0.0, 0.0, 0.0, 0.0, 0.0, 0.0)",0,0,0,,-0.2829,0.0477,-0.3118,"(0.0, 0.0, 0.0, 0.0, 0.0, 0.0, 0.0, 0.0, 0.0)","$VNYMR,-122.810,-001.509,-000.049,-00.2829,+00.0477,-00.3118,-00.359,-00.572,-09.232,+00.009060,+00.010914,-00.241815*62\r\n'"
1711642275.8100147,0,1711642275,809178352,imu1_frame,0,0,0,,0.6441434501850427,-0.220723996,0.693131075,0.2364940718431468,"(0.0, 0.0, 0.0, 0.0, 0.0, 0.0, 0.0, 0.0, 0.0)",0.009833,0.004225,-0.23954,"(0.0, 0.0, 0.0, 0.0, 0.0, 0.0, 0.0, 0.0, 0.0)",-0.366,-0.626,-9.137,"(0.0, 0.0, 0.0, 0.0, 0.0, 0.0, 0.0, 0.0, 0.0)",0,0,0,,-0.2842,0.0452,-0.3062,"(0.0, 0.0, 0.0, 0.0, 0.0, 0.0, 0.0, 0.0, 0.0)","$VNYMR,-123.163,-001.498,-000.018,-00.2842,+00.0452,-00.3062,-00.366,-00.626,-09.137,+00.009833,+00.004225,-00.239541*6C\r\n'"
1711642275.8347652,0,1711642275,834155559,imu1_frame,0,0,0,,0.6011122785969126,-0.320623269,0.6455959443909374,0.34506611646015395,"(0.0, 0.0, 0.0, 0.0, 0.0, 0.0, 0.0, 0.0, 0.0)",0.01302,-0.00344,-0.24092,"(0.0, 0.0, 0.0, 0.0, 0.0, 0.0, 0.0, 0.0, 0.0)",-0.351,-0.821,-9.283,"(0.0, 0.0, 0.0, 0.0, 0.0, 0.0, 0.0, 0.0, 0.0)",0,0,0,,-0.283,0.0439,-0.309,"(0.0, 0.0, 0.0, 0.0, 0.0, 0.0, 0.0, 0.0, 0.0)","$VNYMR,-123.515,-001.499,+000.012,-00.2830,+00.0439,-00.3090,-00.351,-00.821,-09.283,+00.013020,-00.003440,-00.240929*69\r\n'"
1711642275.8597572,0,1711642275,858533382,imu1_frame,0,0,0,,0.5442687794217063,-0.41463771,0.5788976266752743,0.4435364730021223,"(0.0, 0.0, 0.0, 0.0, 0.0, 0.0, 0.0, 0.0, 0.0)",0.016318,-0.007172,-0.24922,"(0.0, 0.0, 0.0, 0.0, 0.0, 0.0, 0.0, 0.0, 0.0)",-0.369,-1.014,-9.6,"(0.0, 0.0, 0.0, 0.0, 0.0, 0.0, 0.0, 0.0, 0.0)",0,0,0,,-0.2829,0.0451,-0.3075,"(0.0, 0.0, 0.0, 0.0, 0.0, 0.0, 0.0, 0.0, 0.0)","$VNYMR,-123.870,-001.507,+000.043,-00.2829,+00.0451,-00.3075,-00.369,-01.014,-09.600,+00.016318,-00.007172,-00.249227*62\r\n'"
1711642275.8864973,0,1711642275,884053945,imu1_frame,0,0,0,,0.47297210535135364,-0.497996774,0.49820150559663584,0.5292370553585052,"(0.0, 0.0, 0.0, 0.0, 0.0, 0.0, 0.0, 0.0, 0.0)",0.021452,-0.00815,-0.25534,"(0.0, 0.0, 0.0, 0.0, 0.0, 0.0, 0.0, 0.0, 0.0)",-0.359,-0.978,-9.71,"(0.0, 0.0, 0.0, 0.0, 0.0, 0.0, 0.0, 0.0, 0.0)",0,0,0,,-0.283,0.0363,-0.3046,"(0.0, 0.0, 0.0, 0.0, 0.0, 0.0, 0.0, 0.0, 0.0)","$VNYMR,-124.227,-001.514,+000.078,-00.2830,+00.0363,-00.3046,-00.359,-00.978,-09.710,+00.021452,-00.008150,-00.255348*6F\r\n'"
1711642275.9105773,0,1711642275,910102128,imu1_frame,0,0,0,,0.3915465341134473,-0.568308051,0.40716243105840794,0.5982775484862042,"(0.0, 0.0, 0.0, 0.0, 0.0, 0.0, 0.0, 0.0, 0.0)",0.021817,-0.007296,-0.25317,"(0.0, 0.0, 0.0, 0.0, 0.0, 0.0, 0.0, 0.0, 0.0)",-0.448,-0.755,-9.829,"(0.0, 0.0, 0.0, 0.0, 0.0, 0.0, 0.0, 0.0, 0.0)",0,0,0,,-0.2843,0.0326,-0.3104,"(0.0, 0.0, 0.0, 0.0, 0.0, 0.0, 0.0, 0.0, 0.0)","$VNYMR,-124.583,-001.523,+000.120,-00.2843,+00.0326,-00.3104,-00.448,-00.755,-09.829,+00.021817,-00.007296,-00.253177*6C\r\n'"
1711642275.9339347,0,1711642275,933484077,imu1_frame,0,0,0,,0.30199489081585273,-0.623858722,0.3096453470535464,0.650937124,"(0.0, 0.0, 0.0, 0.0, 0.0, 0.0, 0.0, 0.0, 0.0)",0.023132,-0.006169,-0.24637,"(0.0, 0.0, 0.0, 0.0, 0.0, 0.0, 0.0, 0.0, 0.0)",-0.318,-0.615,-9.796,"(0.0, 0.0, 0.0, 0.0, 0.0, 0.0, 0.0, 0.0, 0.0)",0,0,0,,-0.2831,0.035,-0.3089,"(0.0, 0.0, 0.0, 0.0, 0.0, 0.0, 0.0, 0.0, 0.0)","$VNYMR,-124.941,-001.531,+000.172,-00.2831,+00.0350,-00.3089,-00.318,-00.615,-09.796,+00.023132,-00.006169,-00.246377*6E\r\n'"
1711642275.9590373,0,1711642275,958563804,imu1_frame,0,0,0,,0.20365355143774233,-0.665599988,0.2052339564701163,0.6880268233690736,"(0.0, 0.0, 0.0, 0.0, 0.0, 0.0, 0.0, 0.0, 0.0)",0.024716,-0.002421,-0.248,"(0.0, 0.0, 0.0, 0.0, 0.0, 0.0, 0.0, 0.0, 0.0)",-0.456,-0.794,-9.638,"(0.0, 0.0, 0.0, 0.0, 0.0, 0.0, 0.0, 0.0, 0.0)",0,0,0,,-0.2819,0.0325,-0.3089,"(0.0, 0.0, 0.0, 0.0, 0.0, 0.0, 0.0, 0.0, 0.0)","$VNYMR,-125.300,-001.539,+000.223,-00.2819,+00.0325,-00.3089,-00.456,-00.794,-09.638,+00.024716,-00.002421,-00.248009*69\r\n'"
1711642275.9839966,0,1711642275,983531475,imu1_frame,0,0,0,,0.097589576,-0.69174806,0.095331506,0.7091352477100246,"(0.0, 0.0, 0.0, 0.0, 0.0, 0.0, 0.0, 0.0, 0.0)",0.021651,-0.004625,-0.24823,"(0.0, 0.0, 0.0, 0.0, 0.0, 0.0, 0.0, 0.0, 0.0)",-0.367,-1.044,-9.528,"(0.0, 0.0, 0.0, 0.0, 0.0, 0.0, 0.0, 0.0, 0.0)",0,0,0,,-0.2831,0.0325,-0.3161,"(0.0, 0.0, 0.0, 0.0, 0.0, 0.0, 0.0, 0.0, 0.0)","$VNYMR,-125.656,-001.546,+000.266,-00.2831,+00.0325,-00.3161,-00.367,-01.044,-09.528,+00.021651,-00.004625,-00.248231*69\r\n'"
1711642276.0088458,0,1711642276,8415699,imu1_frame,0,0,0,,-0.015471839,-0.699863798,-0.020085618,0.7138262070155339,"(0.0, 0.0, 0.0, 0.0, 0.0, 0.0, 0.0, 0.0, 0.0)",0.014943,-0.001126,-0.25199,"(0.0, 0.0, 0.0, 0.0, 0.0, 0.0, 0.0, 0.0, 0.0)",-0.472,-1.134,-9.398,"(0.0, 0.0, 0.0, 0.0, 0.0, 0.0, 0.0, 0.0, 0.0)",0,0,0,,-0.2856,0.0225,-0.3047,"(0.0, 0.0, 0.0, 0.0, 0.0, 0.0, 0.0, 0.0, 0.0)","$VNYMR,-126.008,-001.550,+000.294,-00.2856,+00.0225,-00.3047,-00.472,-01.134,-09.398,+00.014943,-00.001126,-00.251999*6A\r\n'"
1711642276.0351195,0,1711642276,34528732,imu1_frame,0,0,0,,-0.131637742,-0.689316613,-0.137033324,0.6990965452921402,"(0.0, 0.0, 0.0, 0.0, 0.0, 0.0, 0.0, 0.0, 0.0)",0.005001,-0.001853,-0.24884,"(0.0, 0.0, 0.0, 0.0, 0.0, 0.0, 0.0, 0.0, 0.0)",-0.56,-0.823,-9.365,"(0.0, 0.0, 0.0, 0.0, 0.0, 0.0, 0.0, 0.0, 0.0)",0,0,0,,-0.2843,0.03,-0.3118,"(0.0, 0.0, 0.0, 0.0, 0.0, 0.0, 0.0, 0.0, 0.0)","$VNYMR,-126.359,-001.555,+000.313,-00.2843,+00.0300,-00.3118,-00.560,-00.823,-09.365,+00.005001,-00.001853,-00.248846*6E\r\n'"
1711642276.0591104,0,1711642276,58435678,imu1_frame,0,0,0,,-0.247116784,-0.659726636,-0.25060309,0.6639971017165471,"(0.0, 0.0, 0.0, 0.0, 0.0, 0.0, 0.0, 0.0, 0.0)",-0.00471,-0.003741,-0.24102,"(0.0, 0.0, 0.0, 0.0, 0.0, 0.0, 0.0, 0.0, 0.0)",-0.597,-0.902,-9.637,"(0.0, 0.0, 0.0, 0.0, 0.0, 0.0, 0.0, 0.0, 0.0)",0,0,0,,-0.2868,0.0301,-0.3076,"(0.0, 0.0, 0.0, 0.0, 0.0, 0.0, 0.0, 0.0, 0.0)","$VNYMR,-126.708,-001.563,+000.325,-00.2868,+00.0301,-00.3076,-00.597,-00.902,-09.637,-00.004710,-00.003741,-00.241021*69\r\n'"
1711642276.0841198,0,1711642276,83468198,imu1_frame,0,0,0,,-0.357656996,-0.612765754,-0.353786292,0.6094545620400413,"(0.0, 0.0, 0.0, 0.0, 0.0, 0.0, 0.0, 0.0, 0.0)",-0.007212,-0.010666,-0.23629,"(0.0, 0.0, 0.0, 0.0, 0.0, 0.0, 0.0, 0.0, 0.0)",-0.705,-0.889,-9.716,"(0.0, 0.0, 0.0, 0.0, 0.0, 0.0, 0.0, 0.0, 0.0)",0,0,0,,-0.2844,0.0275,-0.3075,"(0.0, 0.0, 0.0, 0.0, 0.0, 0.0, 0.0, 0.0, 0.0)","$VNYMR,-127.054,-001.578,+000.336,-00.2844,+00.0275,-00.3075,-00.705,-00.889,-09.716,-00.007212,-00.010666,-00.236290*62\r\n'"
1711642276.1110728,0,1711642276,109938144,imu1_frame,0,0,0,,-0.462563321,-0.547530275,-0.444769367,0.5370530533756606,"(0.0, 0.0, 0.0, 0.0, 0.0, 0.0, 0.0, 0.0, 0.0)",-0.006258,-0.015793,-0.23717,"(0.0, 0.0, 0.0, 0.0, 0.0, 0.0, 0.0, 0.0, 0.0)",-0.648,-0.982,-9.632,"(0.0, 0.0, 0.0, 0.0, 0.0, 0.0, 0.0, 0.0, 0.0)",0,0,0,,-0.2844,0.0237,-0.3104,"(0.0, 0.0, 0.0, 0.0, 0.0, 0.0, 0.0, 0.0, 0.0)","$VNYMR,-127.399,-001.600,+000.342,-00.2844,+00.0237,-00.3104,-00.648,-00.982,-09.632,-00.006258,-00.015793,-00.237172*64\r\n'"
1711642276.1370044,0,1711642276,136404275,imu1_frame,0,0,0,,-0.556634685,-0.465371685,-0.519426298,0.4514236860563555,"(0.0, 0.0, 0.0, 0.0, 0.0, 0.0, 0.0, 0.0, 0.0)",-0.004364,-0.016179,-0.23566,"(0.0, 0.0, 0.0, 0.0, 0.0, 0.0, 0.0, 0.0, 0.0)",-0.658,-0.925,-9.66,"(0.0, 0.0, 0.0, 0.0, 0.0, 0.0, 0.0, 0.0, 0.0)",0,0,0,,-0.282,0.0237,-0.3103,"(0.0, 0.0, 0.0, 0.0, 0.0, 0.0, 0.0, 0.0, 0.0)","$VNYMR,-127.741,-001.627,+000.347,-00.2820,+00.0237,-00.3103,-00.658,-00.925,-09.660,-00.004364,-00.016179,-00.235663*63\r\n'"
1711642276.1590412,0,1711642276,158401012,imu1_frame,0,0,0,,-0.636218242,-0.367611571,-0.577006714,0.3565828558116002,"(0.0, 0.0, 0.0, 0.0, 0.0, 0.0, 0.0, 0.0, 0.0)",-0.004319,-0.020486,-0.23589,"(0.0, 0.0, 0.0, 0.0, 0.0, 0.0, 0.0, 0.0, 0.0)",-0.598,-0.813,-9.259,"(0.0, 0.0, 0.0, 0.0, 0.0, 0.0, 0.0, 0.0, 0.0)",0,0,0,,-0.2808,0.0148,-0.3059,"(0.0, 0.0, 0.0, 0.0, 0.0, 0.0, 0.0, 0.0, 0.0)","$VNYMR,-128.083,-001.656,+000.354,-00.2808,+00.0148,-00.3059,-00.598,-00.813,-09.259,-00.004319,-00.020486,-00.235891*62\r\n'"
1711642276.1841583,0,1711642276,183521032,imu1_frame,0,0,0,,-0.697441291,-0.256924918,-0.618150312,0.2558425764015091,"(0.0, 0.0, 0.0, 0.0, 0.0, 0.0, 0.0, 0.0, 0.0)",-0.002784,-0.018796,-0.23765,"(0.0, 0.0, 0.0, 0.0, 0.0, 0.0, 0.0, 0.0, 0.0)",-0.489,-0.617,-9.028,"(0.0, 0.0, 0.0, 0.0, 0.0, 0.0, 0.0, 0.0, 0.0)",0,0,0,,-0.2832,0.0224,-0.3146,"(0.0, 0.0, 0.0, 0.0, 0.0, 0.0, 0.0, 0.0, 0.0)","$VNYMR,-128.420,-001.683,+000.358,-00.2832,+00.0224,-00.3146,-00.489,-00.617,-09.028,-00.002784,-00.018796,-00.237654*61\r\n'"
1711642276.2091935,0,1711642276,208534240,imu1_frame,0,0,0,,-0.738539973,-0.134350875,-0.64352312,0.14962133891980636,"(0.0, 0.0, 0.0, 0.0, 0.0, 0.0, 0.0, 0.0, 0.0)",-0.008795,-0.015594,-0.23914,"(0.0, 0.0, 0.0, 0.0, 0.0, 0.0, 0.0, 0.0, 0.0)",-0.583,-0.785,-9.178,"(0.0, 0.0, 0.0, 0.0, 0.0, 0.0, 0.0, 0.0, 0.0)",0,0,0,,-0.2796,0.0135,-0.3001,"(0.0, 0.0, 0.0, 0.0, 0.0, 0.0, 0.0, 0.0, 0.0)","$VNYMR,-128.762,-001.707,+000.362,-00.2796,+00.0135,-00.3001,-00.583,-00.785,-09.178,-00.008795,-00.015594,-00.239149*67\r\n'"
1711642276.2347813,0,1711642276,234170198,imu1_frame,0,0,0,,-0.757086357,-0.005053619,-0.652009402,0.040968864,"(0.0, 0.0, 0.0, 0.0, 0.0, 0.0, 0.0, 0.0, 0.0)",-0.00972,-0.014818,-0.24126,"(0.0, 0.0, 0.0, 0.0, 0.0, 0.0, 0.0, 0.0, 0.0)",-0.611,-0.906,-9.138,"(0.0, 0.0, 0.0, 0.0, 0.0, 0.0, 0.0, 0.0, 0.0)",0,0,0,,-0.2784,0.0147,-0.3115,"(0.0, 0.0, 0.0, 0.0, 0.0, 0.0, 0.0, 0.0, 0.0)","$VNYMR,-129.102,-001.728,+000.362,-00.2784,+00.0147,-00.3115,-00.611,-00.906,-09.138,-00.009720,-00.014818,-00.241267*67\r\n'"
1711642276.259018,0,1711642276,258393764,imu1_frame,0,0,0,,-0.751779974,0.1267082852360486,-0.64351318,-0.068283737,"(0.0, 0.0, 0.0, 0.0, 0.0, 0.0, 0.0, 0.0, 0.0)",-0.011518,-0.009245,-0.23478,"(0.0, 0.0, 0.0, 0.0, 0.0, 0.0, 0.0, 0.0, 0.0)",-0.571,-0.775,-9.202,"(0.0, 0.0, 0.0, 0.0, 0.0, 0.0, 0.0, 0.0, 0.0)",0,0,0,,-0.2784,0.0122,-0.3101,"(0.0, 0.0, 0.0, 0.0, 0.0, 0.0, 0.0, 0.0, 0.0)","$VNYMR,-129.439,-001.745,+000.356,-00.2784,+00.0122,-00.3101,-00.571,-00.775,-09.202,-00.011518,-00.009245,-00.234785*60\r\n'"
1711642276.2850707,0,1711642276,284559726,imu1_frame,0,0,0,,-0.723498841,0.25388429816581976,-0.618265622,-0.172742036,"(0.0, 0.0, 0.0, 0.0, 0.0, 0.0, 0.0, 0.0, 0.0)",-0.012584,-0.005516,-0.22797,"(0.0, 0.0, 0.0, 0.0, 0.0, 0.0, 0.0, 0.0, 0.0)",-0.586,-0.638,-9.314,"(0.0, 0.0, 0.0, 0.0, 0.0, 0.0, 0.0, 0.0, 0.0)",0,0,0,,-0.2772,0.0159,-0.3129,"(0.0, 0.0, 0.0, 0.0, 0.0, 0.0, 0.0, 0.0, 0.0)","$VNYMR,-129.770,-001.759,+000.349,-00.2772,+00.0159,-00.3129,-00.586,-00.638,-09.314,-00.012584,-00.005516,-00.227974*6D\r\n'"
1711642276.3089876,0,1711642276,308486461,imu1_frame,0,0,0,,-0.673477887,0.37169553943696476,-0.578864001,-0.270529907,"(0.0, 0.0, 0.0, 0.0, 0.0, 0.0, 0.0, 0.0, 0.0)",-0.010648,-0.002952,-0.2266,"(0.0, 0.0, 0.0, 0.0, 0.0, 0.0, 0.0, 0.0, 0.0)",-0.677,-0.565,-9.082,"(0.0, 0.0, 0.0, 0.0, 0.0, 0.0, 0.0, 0.0, 0.0)",0,0,0,,-0.2772,0.0096,-0.3172,"(0.0, 0.0, 0.0, 0.0, 0.0, 0.0, 0.0, 0.0, 0.0)","$VNYMR,-130.098,-001.767,+000.345,-00.2772,+00.0096,-00.3172,-00.677,-00.565,-09.082,-00.010648,-00.002952,-00.226601*65\r\n'"
1711642276,0,1711642276,333286762,imu1_frame,0,0,0,,-0.604617553,0.4769535152986998,-0.526736275,-0.359863662,"(0.0, 0.0, 0.0, 0.0, 0.0, 0.0, 0.0, 0.0, 0.0)",-0.004351,-0.001198,-0.23024,"(0.0, 0.0, 0.0, 0.0, 0.0, 0.0, 0.0, 0.0, 0.0)",-0.739,-0.841,-9.293,"(0.0, 0.0, 0.0, 0.0, 0.0, 0.0, 0.0, 0.0, 0.0)",0,0,0,,-0.2796,0.016,-0.313,"(0.0, 0.0, 0.0, 0.0, 0.0, 0.0, 0.0, 0.0, 0.0)","$VNYMR,-130.426,-001.770,+000.347,-00.2796,+00.0160,-00.3130,-00.739,-00.841,-09.293,-00.004351,-00.001198,-00.230243*66\r\n'"
1711642276,0,1711642276,358553171,imu1_frame,0,0,0,,-0.517375684,0.570007453,-0.460200279,-0.44230036,"(0.0, 0.0, 0.0, 0.0, 0.0, 0.0, 0.0, 0.0, 0.0)",-0.008224,0.002014,-0.23354,"(0.0, 0.0, 0.0, 0.0, 0.0, 0.0, 0.0, 0.0, 0.0)",-0.662,-0.887,-9.393,"(0.0, 0.0, 0.0, 0.0, 0.0, 0.0, 0.0, 0.0, 0.0)",0,0,0,,-0.2796,0.0122,-0.313,"(0.0, 0.0, 0.0, 0.0, 0.0, 0.0, 0.0, 0.0, 0.0)","$VNYMR,-130.758,-001.769,+000.347,-00.2796,+00.0122,-00.3130,-00.662,-00.887,-09.393,-00.008224,+00.002014,-00.233542*6C\r\n'"
1711642276.3851864,0,1711642276,384328365,imu1_frame,0,0,0,,-0.416139296,0.6469861233135148,-0.380804965,-0.513054209,"(0.0, 0.0, 0.0, 0.0, 0.0, 0.0, 0.0, 0.0, 0.0)",-0.00936,0.004072,-0.23287,"(0.0, 0.0, 0.0, 0.0, 0.0, 0.0, 0.0, 0.0, 0.0)",-0.596,-0.889,-9.359,"(0.0, 0.0, 0.0, 0.0, 0.0, 0.0, 0.0, 0.0, 0.0)",0,0,0,,-0.276,0.0109,-0.3128,"(0.0, 0.0, 0.0, 0.0, 0.0, 0.0, 0.0, 0.0, 0.0)","$VNYMR,-131.087,-001.767,+000.344,-00.2760,+00.0109,-00.3128,-00.596,-00.889,-09.359,-00.009360,+00.004072,-00.232876*61\r\n'"
1711642276.4105263,0,1711642276,408914089,imu1_frame,0,0,0,,-0.302530302,0.707740472,-0.289193394,-0.569162562,"(0.0, 0.0, 0.0, 0.0, 0.0, 0.0, 0.0, 0.0, 0.0)",-0.013366,0.000955,-0.22864,"(0.0, 0.0, 0.0, 0.0, 0.0, 0.0, 0.0, 0.0, 0.0)",-0.671,-0.765,-9.517,"(0.0, 0.0, 0.0, 0.0, 0.0, 0.0, 0.0, 0.0, 0.0)",0,0,0,,-0.2785,0.0071,-0.3072,"(0.0, 0.0, 0.0, 0.0, 0.0, 0.0, 0.0, 0.0, 0.0)","$VNYMR,-131.417,-001.768,+000.338,-00.2785,+00.0071,-00.3072,-00.671,-00.765,-09.517,-00.013366,+00.000955,-00.228642*6F\r\n'"
1711642276.4348516,0,1711642276,434058904,imu1_frame,0,0,0,,-0.181394372,0.7474756375888348,-0.1905595,-0.609969942,"(0.0, 0.0, 0.0, 0.0, 0.0, 0.0, 0.0, 0.0, 0.0)",-0.01046,0.004012,-0.23061,"(0.0, 0.0, 0.0, 0.0, 0.0, 0.0, 0.0, 0.0, 0.0)",-0.742,-0.868,-9.393,"(0.0, 0.0, 0.0, 0.0, 0.0, 0.0, 0.0, 0.0, 0.0)",0,0,0,,-0.2748,0.0083,-0.3113,"(0.0, 0.0, 0.0, 0.0, 0.0, 0.0, 0.0, 0.0, 0.0)","$VNYMR,-131.746,-001.766,+000.334,-00.2748,+00.0083,-00.3113,-00.742,-00.868,-09.393,-00.010460,+00.004012,-00.230612*69\r\n'"
1711642276.4599638,0,1711642276,459361553,imu1_frame,0,0,0,,-0.052338303,0.7675112763197154,-0.083897514,-0.633362732,"(0.0, 0.0, 0.0, 0.0, 0.0, 0.0, 0.0, 0.0, 0.0)",-0.010221,0.004538,-0.23767,"(0.0, 0.0, 0.0, 0.0, 0.0, 0.0, 0.0, 0.0, 0.0)",-0.651,-0.815,-9.181,"(0.0, 0.0, 0.0, 0.0, 0.0, 0.0, 0.0, 0.0, 0.0)",0,0,0,,-0.2785,0.0008,-0.31,"(0.0, 0.0, 0.0, 0.0, 0.0, 0.0, 0.0, 0.0, 0.0)","$VNYMR,-132.081,-001.766,+000.328,-00.2785,+00.0008,-00.3100,-00.651,-00.815,-09.181,-00.010221,+00.004538,-00.237673*6D\r\n'"
1711642276.4848258,0,1711642276,484124183,imu1_frame,0,0,0,,0.079739762,0.7656354260869964,0.02649523,-0.637763253,"(0.0, 0.0, 0.0, 0.0, 0.0, 0.0, 0.0, 0.0, 0.0)",-0.015372,0.003322,-0.23238,"(0.0, 0.0, 0.0, 0.0, 0.0, 0.0, 0.0, 0.0, 0.0)",-0.593,-0.793,-9.49,"(0.0, 0.0, 0.0, 0.0, 0.0, 0.0, 0.0, 0.0, 0.0)",0,0,0,,-0.276,0.0058,-0.3114,"(0.0, 0.0, 0.0, 0.0, 0.0, 0.0, 0.0, 0.0, 0.0)","$VNYMR,-132.417,-001.767,+000.319,-00.2760,+00.0058,-00.3114,-00.593,-00.793,-09.490,-00.015372,+00.003322,-00.232385*66\r\n'"
1711642276.5096078,0,1711642276,509011507,imu1_frame,0,0,0,,0.21270474437976228,0.7413915882655003,0.1382258185522648,-0.621279991,"(0.0, 0.0, 0.0, 0.0, 0.0, 0.0, 0.0, 0.0, 0.0)",-0.022952,0.001783,-0.23317,"(0.0, 0.0, 0.0, 0.0, 0.0, 0.0, 0.0, 0.0, 0.0)",-0.652,-0.987,-9.417,"(0.0, 0.0, 0.0, 0.0, 0.0, 0.0, 0.0, 0.0, 0.0)",0,0,0,,-0.2773,0.0008,-0.3143,"(0.0, 0.0, 0.0, 0.0, 0.0, 0.0, 0.0, 0.0, 0.0)","$VNYMR,-132.754,-001.771,+000.303,-00.2773,+00.0008,-00.3143,-00.652,-00.987,-09.417,-00.022952,+00.001783,-00.233171*68\r\n'"
1711642276.5346832,0,1711642276,534126758,imu1_frame,0,0,0,,0.3410318854927169,0.6953164634106244,0.2447202401481132,-0.583390326,"(0.0, 0.0, 0.0, 0.0, 0.0, 0.0, 0.0, 0.0, 0.0)",-0.025192,-0.0029,-0.23182,"(0.0, 0.0, 0.0, 0.0, 0.0, 0.0, 0.0, 0.0, 0.0)",-0.552,-0.936,-9.432,"(0.0, 0.0, 0.0, 0.0, 0.0, 0.0, 0.0, 0.0, 0.0)",0,0,0,,-0.2761,0.0008,-0.3128,"(0.0, 0.0, 0.0, 0.0, 0.0, 0.0, 0.0, 0.0, 0.0)","$VNYMR,-133.087,-001.780,+000.281,-00.2761,+00.0008,-00.3128,-00.552,-00.936,-09.432,-00.025192,-00.002900,-00.231829*60\r\n'"
1711642276.5595715,0,1711642276,559097051,imu1_frame,0,0,0,,0.4605220222948022,0.6277311542753792,0.3418646645482354,-0.52630943,"(0.0, 0.0, 0.0, 0.0, 0.0, 0.0, 0.0, 0.0, 0.0)",-0.029753,-0.003828,-0.2306,"(0.0, 0.0, 0.0, 0.0, 0.0, 0.0, 0.0, 0.0, 0.0)",-0.554,-0.851,-9.492,"(0.0, 0.0, 0.0, 0.0, 0.0, 0.0, 0.0, 0.0, 0.0)",0,0,0,,-0.2773,0.0008,-0.3071,"(0.0, 0.0, 0.0, 0.0, 0.0, 0.0, 0.0, 0.0, 0.0)","$VNYMR,-133.418,-001.792,+000.256,-00.2773,+00.0008,-00.3071,-00.554,-00.851,-09.492,-00.029753,-00.003828,-00.230600*60\r\n'"
1711642276.5850625,0,1711642276,584478378,imu1_frame,0,0,0,,0.5678896368198639,0.5403025467661927,0.4257366940926167,-0.45202078,"(0.0, 0.0, 0.0, 0.0, 0.0, 0.0, 0.0, 0.0, 0.0)",-0.029715,-0.007752,-0.22906,"(0.0, 0.0, 0.0, 0.0, 0.0, 0.0, 0.0, 0.0, 0.0)",-0.477,-0.811,-9.342,"(0.0, 0.0, 0.0, 0.0, 0.0, 0.0, 0.0, 0.0, 0.0)",0,0,0,,-0.2712,0.0044,-0.3155,"(0.0, 0.0, 0.0, 0.0, 0.0, 0.0, 0.0, 0.0, 0.0)","$VNYMR,-133.748,-001.808,+000.229,-00.2712,+00.0044,-00.3155,-00.477,-00.811,-09.342,-00.029715,-00.007752,-00.229065*6D\r\n'"
1711642276.6095014,0,1711642276,608994007,imu1_frame,0,0,0,,0.659570661,0.4348800214531896,0.4934996574032022,-0.363736166,"(0.0, 0.0, 0.0, 0.0, 0.0, 0.0, 0.0, 0.0, 0.0)",-0.030193,-0.012839,-0.2313,"(0.0, 0.0, 0.0, 0.0, 0.0, 0.0, 0.0, 0.0, 0.0)",-0.452,-1.054,-9.344,"(0.0, 0.0, 0.0, 0.0, 0.0, 0.0, 0.0, 0.0, 0.0)",0,0,0,,-0.2738,-0.0094,-0.3112,"(0.0, 0.0, 0.0, 0.0, 0.0, 0.0, 0.0, 0.0, 0.0)","$VNYMR,-134.078,-001.827,+000.201,-00.2738,-00.0094,-00.3112,-00.452,-01.054,-09.344,-00.030193,-00.012839,-00.231309*66\r\n'"
1711642276.6352048,0,1711642276,634220123,imu1_frame,0,0,0,,0.7328581379900134,0.3135650357785497,0.5432493317124466,-0.263583159,"(0.0, 0.0, 0.0, 0.0, 0.0, 0.0, 0.0, 0.0, 0.0)",-0.028573,-0.010283,-0.23114,"(0.0, 0.0, 0.0, 0.0, 0.0, 0.0, 0.0, 0.0, 0.0)",-0.701,-0.996,-9.835,"(0.0, 0.0, 0.0, 0.0, 0.0, 0.0, 0.0, 0.0, 0.0)",0,0,0,,-0.2737,0.0007,-0.3156,"(0.0, 0.0, 0.0, 0.0, 0.0, 0.0, 0.0, 0.0, 0.0)","$VNYMR,-134.406,-001.849,+000.167,-00.2737,+00.0007,-00.3156,-00.701,-00.996,-09.835,-00.028573,-00.010283,-00.231142*6A\r\n'"
1711642276.659097,0,1711642276,658583879,imu1_frame,0,0,0,,0.7838927978752812,0.18270860810859885,0.5715888634419293,-0.15942339,"(0.0, 0.0, 0.0, 0.0, 0.0, 0.0, 0.0, 0.0, 0.0)",-0.028558,-0.013649,-0.23192,"(0.0, 0.0, 0.0, 0.0, 0.0, 0.0, 0.0, 0.0, 0.0)",-0.71,-0.871,-9.87,"(0.0, 0.0, 0.0, 0.0, 0.0, 0.0, 0.0, 0.0, 0.0)",0,0,0,,-0.2669,-0.0162,-0.317,"(0.0, 0.0, 0.0, 0.0, 0.0, 0.0, 0.0, 0.0, 0.0)","$VNYMR,-134.732,-001.874,+000.138,-00.2669,-00.0162,-00.3170,-00.710,-00.871,-09.870,-00.028558,-00.013649,-00.231923*6E\r\n'"
1711642276.6850715,0,1711642276,684005022,imu1_frame,0,0,0,,0.8115178040420243,0.046090526906233775,0.5799419233375973,-0.054606617,"(0.0, 0.0, 0.0, 0.0, 0.0, 0.0, 0.0, 0.0, 0.0)",-0.031608,-0.01514,-0.22477,"(0.0, 0.0, 0.0, 0.0, 0.0, 0.0, 0.0, 0.0, 0.0)",-0.558,-0.518,-9.846,"(0.0, 0.0, 0.0, 0.0, 0.0, 0.0, 0.0, 0.0, 0.0)",0,0,0,,-0.2657,-0.0162,-0.3169,"(0.0, 0.0, 0.0, 0.0, 0.0, 0.0, 0.0, 0.0, 0.0)","$VNYMR,-135.053,-001.900,+000.109,-00.2657,-00.0162,-00.3169,-00.558,-00.518,-09.846,-00.031608,-00.015140,-00.224774*6D\r\n'"
1711642276.7094083,0,1711642276,708993434,imu1_frame,0,0,0,,0.8143578431390991,-0.093845258,0.5705675157603313,0.049669717,"(0.0, 0.0, 0.0, 0.0, 0.0, 0.0, 0.0, 0.0, 0.0)",-0.038577,-0.01605,-0.2207,"(0.0, 0.0, 0.0, 0.0, 0.0, 0.0, 0.0, 0.0, 0.0)",-0.509,-0.603,-9.861,"(0.0, 0.0, 0.0, 0.0, 0.0, 0.0, 0.0, 0.0, 0.0)",0,0,0,,-0.2643,-0.0035,-0.3285,"(0.0, 0.0, 0.0, 0.0, 0.0, 0.0, 0.0, 0.0, 0.0)","$VNYMR,-135.371,-001.923,+000.076,-00.2643,-00.0035,-00.3285,-00.509,-00.603,-09.861,-00.038577,-00.016050,-00.220708*67\r\n'"
1711642276.7344842,0,1711642276,733942508,imu1_frame,0,0,0,,0.7936688198800174,-0.230436325,0.5436162563642348,0.1465273700347831,"(0.0, 0.0, 0.0, 0.0, 0.0, 0.0, 0.0, 0.0, 0.0)",-0.025463,-0.014257,-0.22175,"(0.0, 0.0, 0.0, 0.0, 0.0, 0.0, 0.0, 0.0, 0.0)",-0.469,-0.669,-9.671,"(0.0, 0.0, 0.0, 0.0, 0.0, 0.0, 0.0, 0.0, 0.0)",0,0,0,,-0.2632,-0.015,-0.3212,"(0.0, 0.0, 0.0, 0.0, 0.0, 0.0, 0.0, 0.0, 0.0)","$VNYMR,-135.687,-001.946,+000.049,-00.2632,-00.0150,-00.3212,-00.469,-00.669,-09.671,-00.025463,-00.014257,-00.221753*6A\r\n'"
1711642276.760157,0,1711642276,759387969,imu1_frame,0,0,0,,0.7518604745251338,-0.359774638,0.5010809091150773,0.23277877706116154,"(0.0, 0.0, 0.0, 0.0, 0.0, 0.0, 0.0, 0.0, 0.0)",-0.021625,-0.015768,-0.21885,"(0.0, 0.0, 0.0, 0.0, 0.0, 0.0, 0.0, 0.0, 0.0)",-0.559,-0.652,-9.68,"(0.0, 0.0, 0.0, 0.0, 0.0, 0.0, 0.0, 0.0, 0.0)",0,0,0,,-0.2657,-0.0188,-0.314,"(0.0, 0.0, 0.0, 0.0, 0.0, 0.0, 0.0, 0.0, 0.0)","$VNYMR,-135.999,-001.971,+000.027,-00.2657,-00.0188,-00.3140,-00.559,-00.652,-09.680,-00.021625,-00.015768,-00.218858*62\r\n'"
1711642276.7865705,0,1711642276,785577058,imu1_frame,0,0,0,,0.6907291223672057,-0.479132895,0.44752039629050444,0.3050417068753339,"(0.0, 0.0, 0.0, 0.0, 0.0, 0.0, 0.0, 0.0, 0.0)",-0.011086,-0.02012,-0.22013,"(0.0, 0.0, 0.0, 0.0, 0.0, 0.0, 0.0, 0.0, 0.0)",-0.504,-0.609,-9.719,"(0.0, 0.0, 0.0, 0.0, 0.0, 0.0, 0.0, 0.0, 0.0)",0,0,0,,-0.2644,-0.0111,-0.3212,"(0.0, 0.0, 0.0, 0.0, 0.0, 0.0, 0.0, 0.0, 0.0)","$VNYMR,-136.313,-001.997,+000.018,-00.2644,-00.0111,-00.3212,-00.504,-00.609,-09.719,-00.011086,-00.020120,-00.220136*66\r\n'"
1711642276.8093734,0,1711642276,808969736,imu1_frame,0,0,0,,0.6131854726810946,-0.584012262,0.38921462601019735,0.3625537596725951,"(0.0, 0.0, 0.0, 0.0, 0.0, 0.0, 0.0, 0.0, 0.0)",-0.002603,-0.017727,-0.22104,"(0.0, 0.0, 0.0, 0.0, 0.0, 0.0, 0.0, 0.0, 0.0)",-0.494,-0.521,-9.694,"(0.0, 0.0, 0.0, 0.0, 0.0, 0.0, 0.0, 0.0, 0.0)",0,0,0,,-0.2644,-0.0124,-0.3212,"(0.0, 0.0, 0.0, 0.0, 0.0, 0.0, 0.0, 0.0, 0.0)","$VNYMR,-136.625,-002.020,+000.023,-00.2644,-00.0124,-00.3212,-00.494,-00.521,-09.694,-00.002603,-00.017727,-00.221047*61\r\n'"
1711642276.834388,0,1711642276,833854913,imu1_frame,0,0,0,,0.5207557507941738,-0.675305741,0.32772931673348205,0.4066559966779469,"(0.0, 0.0, 0.0, 0.0, 0.0, 0.0, 0.0, 0.0, 0.0)",0.001027,-0.016982,-0.21969,"(0.0, 0.0, 0.0, 0.0, 0.0, 0.0, 0.0, 0.0, 0.0)",-0.651,-0.426,-9.85,"(0.0, 0.0, 0.0, 0.0, 0.0, 0.0, 0.0, 0.0, 0.0)",0,0,0,,-0.2644,-0.0137,-0.3198,"(0.0, 0.0, 0.0, 0.0, 0.0, 0.0, 0.0, 0.0, 0.0)","$VNYMR,-136.942,-002.043,+000.042,-00.2644,-00.0137,-00.3198,-00.651,-00.426,-09.850,+00.001027,-00.016982,-00.219690*67\r\n'"
1711642276.8596644,0,1711642276,859028339,imu1_frame,0,0,0,,0.41366467608388163,-0.751715034,0.26364778153672763,0.44079007571568396,"(0.0, 0.0, 0.0, 0.0, 0.0, 0.0, 0.0, 0.0, 0.0)",0.003968,-0.016612,-0.22381,"(0.0, 0.0, 0.0, 0.0, 0.0, 0.0, 0.0, 0.0, 0.0)",-0.691,-0.626,-9.952,"(0.0, 0.0, 0.0, 0.0, 0.0, 0.0, 0.0, 0.0, 0.0)",0,0,0,,-0.2607,-0.0074,-0.3109,"(0.0, 0.0, 0.0, 0.0, 0.0, 0.0, 0.0, 0.0, 0.0)","$VNYMR,-137.264,-002.064,+000.067,-00.2607,-00.0074,-00.3109,-00.691,-00.626,-09.952,+00.003968,-00.016612,-00.223815*63\r\n'"
1711642276.8845594,0,1711642276,883932113,imu1_frame,0,0,0,,0.29510824268140223,-0.810719532,0.198322277,0.46509487202242406,"(0.0, 0.0, 0.0, 0.0, 0.0, 0.0, 0.0, 0.0, 0.0)",0.008344,-0.015406,-0.22353,"(0.0, 0.0, 0.0, 0.0, 0.0, 0.0, 0.0, 0.0, 0.0)",-0.586,-0.543,-10.004,"(0.0, 0.0, 0.0, 0.0, 0.0, 0.0, 0.0, 0.0, 0.0)",0,0,0,,-0.262,-0.0163,-0.3153,"(0.0, 0.0, 0.0, 0.0, 0.0, 0.0, 0.0, 0.0, 0.0)","$VNYMR,-137.588,-002.084,+000.096,-00.2620,-00.0163,-00.3153,-00.586,-00.543,-10.004,+00.008344,-00.015406,-00.223535*68\r\n'"
1711642276.9093716,0,1711642276,908830642,imu1_frame,0,0,0,,0.1681018571512998,-0.848832051,0.13594597248645612,0.4824361168198111,"(0.0, 0.0, 0.0, 0.0, 0.0, 0.0, 0.0, 0.0, 0.0)",0.019334,-0.011524,-0.22713,"(0.0, 0.0, 0.0, 0.0, 0.0, 0.0, 0.0, 0.0, 0.0)",-0.585,-0.517,-9.751,"(0.0, 0.0, 0.0, 0.0, 0.0, 0.0, 0.0, 0.0, 0.0)",0,0,0,,-0.2657,-0.0175,-0.3198,"(0.0, 0.0, 0.0, 0.0, 0.0, 0.0, 0.0, 0.0, 0.0)","$VNYMR,-137.918,-002.097,+000.137,-00.2657,-00.0175,-00.3198,-00.585,-00.517,-09.751,+00.019334,-00.011524,-00.227132*6D\r\n'"
1711642276.9345238,0,1711642276,934123516,imu1_frame,0,0,0,,0.038982481,-0.86416699,0.077618771,0.49565220304412255,"(0.0, 0.0, 0.0, 0.0, 0.0, 0.0, 0.0, 0.0, 0.0)",0.028012,-0.006157,-0.22561,"(0.0, 0.0, 0.0, 0.0, 0.0, 0.0, 0.0, 0.0, 0.0)",-0.559,-0.301,-9.618,"(0.0, 0.0, 0.0, 0.0, 0.0, 0.0, 0.0, 0.0, 0.0)",0,0,0,,-0.2608,-0.0215,-0.3123,"(0.0, 0.0, 0.0, 0.0, 0.0, 0.0, 0.0, 0.0, 0.0)","$VNYMR,-138.249,-002.101,+000.190,-00.2608,-00.0215,-00.3123,-00.559,-00.301,-09.618,+00.028012,-00.006157,-00.225617*6C\r\n'"
1711642276.9595015,0,1711642276,959006309,imu1_frame,0,0,0,,-0.087760864,-0.858603859,0.023699474076825988,0.5045153896931347,"(0.0, 0.0, 0.0, 0.0, 0.0, 0.0, 0.0, 0.0, 0.0)",0.036516,-0.004123,-0.22959,"(0.0, 0.0, 0.0, 0.0, 0.0, 0.0, 0.0, 0.0, 0.0)",-0.569,-0.486,-9.556,"(0.0, 0.0, 0.0, 0.0, 0.0, 0.0, 0.0, 0.0, 0.0)",0,0,0,,-0.2632,-0.0176,-0.3096,"(0.0, 0.0, 0.0, 0.0, 0.0, 0.0, 0.0, 0.0, 0.0)","$VNYMR,-138.582,-002.102,+000.258,-00.2632,-00.0176,-00.3096,-00.569,-00.486,-09.556,+00.036516,-00.004123,-00.229594*61\r\n'"
1711642276.9844027,0,1711642276,983971834,imu1_frame,0,0,0,,-0.209283309,-0.83303101,-0.029730375,0.511249388,"(0.0, 0.0, 0.0, 0.0, 0.0, 0.0, 0.0, 0.0, 0.0)",0.044832,-0.003905,-0.23229,"(0.0, 0.0, 0.0, 0.0, 0.0, 0.0, 0.0, 0.0, 0.0)",-0.635,-0.712,-9.629,"(0.0, 0.0, 0.0, 0.0, 0.0, 0.0, 0.0, 0.0, 0.0)",0,0,0,,-0.2607,-0.0087,-0.3153,"(0.0, 0.0, 0.0, 0.0, 0.0, 0.0, 0.0, 0.0, 0.0)","$VNYMR,-138.915,-002.098,+000.333,-00.2607,-00.0087,-00.3153,-00.635,-00.712,-09.629,+00.044832,-00.003905,-00.232291*6E\r\n'"
1711642277.0092862,0,1711642277,8840799,imu1_frame,0,0,0,,-0.325604608,-0.788290418,-0.089464651,0.5143694505319337,"(0.0, 0.0, 0.0, 0.0, 0.0, 0.0, 0.0, 0.0, 0.0)",0.039917,0.004984,-0.23747,"(0.0, 0.0, 0.0, 0.0, 0.0, 0.0, 0.0, 0.0, 0.0)",-0.601,-0.803,-9.651,"(0.0, 0.0, 0.0, 0.0, 0.0, 0.0, 0.0, 0.0, 0.0)",0,0,0,,-0.2608,-0.024,-0.3138,"(0.0, 0.0, 0.0, 0.0, 0.0, 0.0, 0.0, 0.0, 0.0)","$VNYMR,-139.250,-002.088,+000.403,-00.2608,-00.0240,-00.3138,-00.601,-00.803,-09.651,+00.039917,+00.004984,-00.237477*63\r\n'"
1711642277.034178,0,1711642277,33769369,imu1_frame,0,0,0,,-0.435207741,-0.726071951,-0.158660808,0.5081736824743239,"(0.0, 0.0, 0.0, 0.0, 0.0, 0.0, 0.0, 0.0, 0.0)",0.021087,0.008389,-0.23267,"(0.0, 0.0, 0.0, 0.0, 0.0, 0.0, 0.0, 0.0, 0.0)",-0.541,-0.761,-9.685,"(0.0, 0.0, 0.0, 0.0, 0.0, 0.0, 0.0, 0.0, 0.0)",0,0,0,,-0.2607,-0.0112,-0.3109,"(0.0, 0.0, 0.0, 0.0, 0.0, 0.0, 0.0, 0.0, 0.0)","$VNYMR,-139.582,-002.074,+000.455,-00.2607,-00.0112,-00.3109,-00.541,-00.761,-09.685,+00.021087,+00.008389,-00.232670*65\r\n'"
1711642277.0595703,0,1711642277,58767080,imu1_frame,0,0,0,,-0.535644587,-0.647214032,-0.236145901,0.4882970271208691,"(0.0, 0.0, 0.0, 0.0, 0.0, 0.0, 0.0, 0.0, 0.0)",0.002888,0.009097,-0.22551,"(0.0, 0.0, 0.0, 0.0, 0.0, 0.0, 0.0, 0.0, 0.0)",-0.626,-0.747,-9.658,"(0.0, 0.0, 0.0, 0.0, 0.0, 0.0, 0.0, 0.0, 0.0)",0,0,0,,-0.2621,-0.0291,-0.3095,"(0.0, 0.0, 0.0, 0.0, 0.0, 0.0, 0.0, 0.0, 0.0)","$VNYMR,-139.910,-002.055,+000.486,-00.2621,-00.0291,-00.3095,-00.626,-00.747,-09.658,+00.002888,+00.009097,-00.225517*6E\r\n'"
1711642277.0844603,0,1711642277,83810091,imu1_frame,0,0,0,,-0.623280702,-0.554308703,-0.314925048,0.45286338107019863,"(0.0, 0.0, 0.0, 0.0, 0.0, 0.0, 0.0, 0.0, 0.0)",-0.004963,0.011856,-0.22361,"(0.0, 0.0, 0.0, 0.0, 0.0, 0.0, 0.0, 0.0, 0.0)",-0.574,-0.794,-9.367,"(0.0, 0.0, 0.0, 0.0, 0.0, 0.0, 0.0, 0.0, 0.0)",0,0,0,,-0.2646,-0.0239,-0.3125,"(0.0, 0.0, 0.0, 0.0, 0.0, 0.0, 0.0, 0.0, 0.0)","$VNYMR,-140.233,-002.034,+000.503,-00.2646,-00.0239,-00.3125,-00.574,-00.794,-09.367,-00.004963,+00.011856,-00.223611*60\r\n'"
1711642277.1111946,0,1711642277,110246896,imu1_frame,0,0,0,,-0.695554881,-0.44908161,-0.388658376,0.4043189095464189,"(0.0, 0.0, 0.0, 0.0, 0.0, 0.0, 0.0, 0.0, 0.0)",0.00115,0.008838,-0.22705,"(0.0, 0.0, 0.0, 0.0, 0.0, 0.0, 0.0, 0.0, 0.0)",-0.563,-0.976,-9.18,"(0.0, 0.0, 0.0, 0.0, 0.0, 0.0, 0.0, 0.0, 0.0)",0,0,0,,-0.2634,-0.0278,-0.3153,"(0.0, 0.0, 0.0, 0.0, 0.0, 0.0, 0.0, 0.0, 0.0)","$VNYMR,-140.560,-002.013,+000.522,-00.2634,-00.0278,-00.3153,-00.563,-00.976,-09.180,+00.001150,+00.008838,-00.227056*63\r\n'"
1711642277.134636,0,1711642277,133962154,imu1_frame,0,0,0,,-0.748965479,-0.336228198,-0.454180005,0.3460084307778568,"(0.0, 0.0, 0.0, 0.0, 0.0, 0.0, 0.0, 0.0, 0.0)",0.016251,0.013352,-0.22827,"(0.0, 0.0, 0.0, 0.0, 0.0, 0.0, 0.0, 0.0, 0.0)",-0.624,-0.932,-9.201,"(0.0, 0.0, 0.0, 0.0, 0.0, 0.0, 0.0, 0.0, 0.0)",0,0,0,,-0.2621,-0.0278,-0.3182,"(0.0, 0.0, 0.0, 0.0, 0.0, 0.0, 0.0, 0.0, 0.0)","$VNYMR,-140.889,-001.991,+000.549,-00.2621,-00.0278,-00.3182,-00.624,-00.932,-09.201,+00.016251,+00.013352,-00.228273*65\r\n'"
1711642277.159868,0,1711642277,159182310,imu1_frame,0,0,0,,-0.782838647,-0.222166096,-0.508188563,0.2820465626173044,"(0.0, 0.0, 0.0, 0.0, 0.0, 0.0, 0.0, 0.0, 0.0)",0.018615,0.011189,-0.22462,"(0.0, 0.0, 0.0, 0.0, 0.0, 0.0, 0.0, 0.0, 0.0)",-0.798,-0.952,-9.165,"(0.0, 0.0, 0.0, 0.0, 0.0, 0.0, 0.0, 0.0, 0.0)",0,0,0,,-0.2646,-0.029,-0.311,"(0.0, 0.0, 0.0, 0.0, 0.0, 0.0, 0.0, 0.0, 0.0)","$VNYMR,-141.214,-001.971,+000.587,-00.2646,-00.0290,-00.3110,-00.798,-00.952,-09.165,+00.018615,+00.011189,-00.224622*6B\r\n'"
1711642277.1854324,0,1711642277,184862375,imu1_frame,0,0,0,,-0.801232074,-0.103264879,-0.552598975,0.20493389233046316,"(0.0, 0.0, 0.0, 0.0, 0.0, 0.0, 0.0, 0.0, 0.0)",0.006142,0.007687,-0.22311,"(0.0, 0.0, 0.0, 0.0, 0.0, 0.0, 0.0, 0.0, 0.0)",-0.805,-0.964,-9.308,"(0.0, 0.0, 0.0, 0.0, 0.0, 0.0, 0.0, 0.0, 0.0)",0,0,0,,-0.2646,-0.029,-0.3168,"(0.0, 0.0, 0.0, 0.0, 0.0, 0.0, 0.0, 0.0, 0.0)","$VNYMR,-141.536,-001.953,+000.612,-00.2646,-00.0290,-00.3168,-00.805,-00.964,-09.308,+00.006142,+00.007687,-00.223110*6E\r\n'"
1711642277.210409,0,1711642277,209382295,imu1_frame,0,0,0,,-0.804447552,0.022719511478624832,-0.58264197,0.11347376591761993,"(0.0, 0.0, 0.0, 0.0, 0.0, 0.0, 0.0, 0.0, 0.0)",-0.012439,0.006375,-0.22448,"(0.0, 0.0, 0.0, 0.0, 0.0, 0.0, 0.0, 0.0, 0.0)",-0.579,-1.113,-9.581,"(0.0, 0.0, 0.0, 0.0, 0.0, 0.0, 0.0, 0.0, 0.0)",0,0,0,,-0.2634,-0.0278,-0.311,"(0.0, 0.0, 0.0, 0.0, 0.0, 0.0, 0.0, 0.0, 0.0)","$VNYMR,-141.857,-001.941,+000.616,-00.2634,-00.0278,-00.3110,-00.579,-01.113,-09.581,-00.012439,+00.006375,-00.224481*6E\r\n'"
1711642277.2344162,0,1711642277,233835220,imu1_frame,0,0,0,,-0.78836299,0.1534920500542521,-0.59571734,0.006696054,"(0.0, 0.0, 0.0, 0.0, 0.0, 0.0, 0.0, 0.0, 0.0)",-0.034083,0.007456,-0.2181,"(0.0, 0.0, 0.0, 0.0, 0.0, 0.0, 0.0, 0.0, 0.0)",-0.535,-0.804,-9.441,"(0.0, 0.0, 0.0, 0.0, 0.0, 0.0, 0.0, 0.0, 0.0)",0,0,0,,-0.2646,-0.0316,-0.3154,"(0.0, 0.0, 0.0, 0.0, 0.0, 0.0, 0.0, 0.0, 0.0)","$VNYMR,-142.171,-001.927,+000.588,-00.2646,-00.0316,-00.3154,-00.535,-00.804,-09.441,-00.034083,+00.007456,-00.218105*63\r\n'"
1711642277.2610867,0,1711642277,260484695,imu1_frame,0,0,0,,-0.751673698,0.2823160186565993,-0.586742311,-0.104965608,"(0.0, 0.0, 0.0, 0.0, 0.0, 0.0, 0.0, 0.0, 0.0)",-0.043529,0.00864,-0.21181,"(0.0, 0.0, 0.0, 0.0, 0.0, 0.0, 0.0, 0.0, 0.0)",-0.75,-0.668,-9.401,"(0.0, 0.0, 0.0, 0.0, 0.0, 0.0, 0.0, 0.0, 0.0)",0,0,0,,-0.2647,-0.0354,-0.311,"(0.0, 0.0, 0.0, 0.0, 0.0, 0.0, 0.0, 0.0, 0.0)","$VNYMR,-142.475,-001.915,+000.540,-00.2647,-00.0354,-00.3110,-00.750,-00.668,-09.401,-00.043529,+00.008640,-00.211816*6C\r\n'"
1711642277.2865355,0,1711642277,285843610,imu1_frame,0,0,0,,-0.693968636,0.40123445458046775,-0.558988478,-0.212014921,"(0.0, 0.0, 0.0, 0.0, 0.0, 0.0, 0.0, 0.0, 0.0)",-0.035579,0.01309,-0.20998,"(0.0, 0.0, 0.0, 0.0, 0.0, 0.0, 0.0, 0.0, 0.0)",-0.842,-0.664,-9.612,"(0.0, 0.0, 0.0, 0.0, 0.0, 0.0, 0.0, 0.0, 0.0)",0,0,0,,-0.2634,-0.0278,-0.311,"(0.0, 0.0, 0.0, 0.0, 0.0, 0.0, 0.0, 0.0, 0.0)","$VNYMR,-142.778,-001.901,+000.496,-00.2634,-00.0278,-00.3110,-00.842,-00.664,-09.612,-00.035579,+00.013090,-00.209983*67\r\n'"
1711642277.3104393,0,1711642277,309944391,imu1_frame,0,0,0,,-0.619583293,0.5025453480924937,-0.518906825,-0.30708374,"(0.0, 0.0, 0.0, 0.0, 0.0, 0.0, 0.0, 0.0, 0.0)",-0.01772,0.018669,-0.20999,"(0.0, 0.0, 0.0, 0.0, 0.0, 0.0, 0.0, 0.0, 0.0)",-0.754,-0.811,-9.643,"(0.0, 0.0, 0.0, 0.0, 0.0, 0.0, 0.0, 0.0, 0.0)",0,0,0,,-0.2683,-0.0264,-0.3126,"(0.0, 0.0, 0.0, 0.0, 0.0, 0.0, 0.0, 0.0, 0.0)","$VNYMR,-143.085,-001.883,+000.477,-00.2683,-00.0264,-00.3126,-00.754,-00.811,-09.643,-00.017720,+00.018669,-00.209996*62\r\n'"
1711642277.3341575,0,1711642277,333644628,imu1_frame,0,0,0,,-0.534790308,0.5850492380473749,-0.468536342,-0.390115896,"(0.0, 0.0, 0.0, 0.0, 0.0, 0.0, 0.0, 0.0, 0.0)",-0.003927,0.019279,-0.20925,"(0.0, 0.0, 0.0, 0.0, 0.0, 0.0, 0.0, 0.0, 0.0)",-0.795,-0.89,-9.762,"(0.0, 0.0, 0.0, 0.0, 0.0, 0.0, 0.0, 0.0, 0.0)",0,0,0,,-0.2683,-0.0302,-0.3184,"(0.0, 0.0, 0.0, 0.0, 0.0, 0.0, 0.0, 0.0, 0.0)","$VNYMR,-143.386,-001.863,+000.472,-00.2683,-00.0302,-00.3184,-00.795,-00.890,-09.762,-00.003927,+00.019279,-00.209255*6A\r\n'"
1711642277.3615394,0,1711642277,360783338,imu1_frame,0,0,0,,-0.441759636,0.6513135957025257,-0.407507616,-0.4632241,"(0.0, 0.0, 0.0, 0.0, 0.0, 0.0, 0.0, 0.0, 0.0)",-0.004393,0.01926,-0.20731,"(0.0, 0.0, 0.0, 0.0, 0.0, 0.0, 0.0, 0.0, 0.0)",-0.708,-0.675,-9.848,"(0.0, 0.0, 0.0, 0.0, 0.0, 0.0, 0.0, 0.0, 0.0)",0,0,0,,-0.2647,-0.0418,-0.3095,"(0.0, 0.0, 0.0, 0.0, 0.0, 0.0, 0.0, 0.0, 0.0)","$VNYMR,-143.682,-001.842,+000.471,-00.2647,-00.0418,-00.3095,-00.708,-00.675,-09.848,-00.004393,+00.019260,-00.207316*6A\r\n'"
1711642277.3850555,0,1711642277,384540557,imu1_frame,0,0,0,,-0.340218296,0.7039519009266931,-0.334415483,-0.526183919,"(0.0, 0.0, 0.0, 0.0, 0.0, 0.0, 0.0, 0.0, 0.0)",-0.012079,0.015992,-0.20878,"(0.0, 0.0, 0.0, 0.0, 0.0, 0.0, 0.0, 0.0, 0.0)",-0.638,-0.541,-9.773,"(0.0, 0.0, 0.0, 0.0, 0.0, 0.0, 0.0, 0.0, 0.0)",0,0,0,,-0.2671,-0.029,-0.3184,"(0.0, 0.0, 0.0, 0.0, 0.0, 0.0, 0.0, 0.0, 0.0)","$VNYMR,-143.979,-001.823,+000.469,-00.2671,-00.0290,-00.3184,-00.638,-00.541,-09.773,-00.012079,+00.015992,-00.208783*61\r\n'"
1711642277.4096794,0,1711642277,408908367,imu1_frame,0,0,0,,-0.231504359,0.7417355425240668,-0.250278157,-0.577576801,"(0.0, 0.0, 0.0, 0.0, 0.0, 0.0, 0.0, 0.0, 0.0)",-0.017434,0.014098,-0.20847,"(0.0, 0.0, 0.0, 0.0, 0.0, 0.0, 0.0, 0.0, 0.0)",-0.595,-0.443,-9.479,"(0.0, 0.0, 0.0, 0.0, 0.0, 0.0, 0.0, 0.0, 0.0)",0,0,0,,-0.2647,-0.0405,-0.3095,"(0.0, 0.0, 0.0, 0.0, 0.0, 0.0, 0.0, 0.0, 0.0)","$VNYMR,-144.277,-001.805,+000.464,-00.2647,-00.0405,-00.3095,-00.595,-00.443,-09.479,-00.017434,+00.014098,-00.208475*6A\r\n'"
1711642277.4353487,0,1711642277,434630632,imu1_frame,0,0,0,,-0.11762516,0.7651053763801254,-0.158324039,-0.612953166,"(0.0, 0.0, 0.0, 0.0, 0.0, 0.0, 0.0, 0.0, 0.0)",-0.012576,0.011518,-0.212,"(0.0, 0.0, 0.0, 0.0, 0.0, 0.0, 0.0, 0.0, 0.0)",-0.59,-0.768,-9.528,"(0.0, 0.0, 0.0, 0.0, 0.0, 0.0, 0.0, 0.0, 0.0)",0,0,0,,-0.2622,-0.0355,-0.3211,"(0.0, 0.0, 0.0, 0.0, 0.0, 0.0, 0.0, 0.0, 0.0)","$VNYMR,-144.577,-001.794,+000.459,-00.2622,-00.0355,-00.3211,-00.590,-00.768,-09.528,-00.012576,+00.011518,-00.212004*62\r\n'"
1711642277.4594982,0,1711642277,458753824,imu1_frame,0,0,0,,-0.001110414,0.7710980703629747,-0.060929181,-0.633793474,"(0.0, 0.0, 0.0, 0.0, 0.0, 0.0, 0.0, 0.0, 0.0)",-0.010165,0.011203,-0.2138,"(0.0, 0.0, 0.0, 0.0, 0.0, 0.0, 0.0, 0.0, 0.0)",-0.558,-0.825,-9.373,"(0.0, 0.0, 0.0, 0.0, 0.0, 0.0, 0.0, 0.0, 0.0)",0,0,0,,-0.2672,-0.0366,-0.314,"(0.0, 0.0, 0.0, 0.0, 0.0, 0.0, 0.0, 0.0, 0.0)","$VNYMR,-144.880,-001.783,+000.455,-00.2672,-00.0366,-00.3140,-00.558,-00.825,-09.373,-00.010165,+00.011203,-00.213809*68\r\n'"
1711642277.4841487,0,1711642277,483515501,imu1_frame,0,0,0,,0.1143717016894299,0.7601730438166879,0.037089471,-0.638498574,"(0.0, 0.0, 0.0, 0.0, 0.0, 0.0, 0.0, 0.0, 0.0)",-0.004721,0.007081,-0.21633,"(0.0, 0.0, 0.0, 0.0, 0.0, 0.0, 0.0, 0.0, 0.0)",-0.613,-0.874,-9.355,"(0.0, 0.0, 0.0, 0.0, 0.0, 0.0, 0.0, 0.0, 0.0)",0,0,0,,-0.2671,-0.0328,-0.314,"(0.0, 0.0, 0.0, 0.0, 0.0, 0.0, 0.0, 0.0, 0.0)","$VNYMR,-145.187,-001.775,+000.458,-00.2671,-00.0328,-00.3140,-00.613,-00.874,-09.355,-00.004721,+00.007081,-00.216330*6E\r\n'"
1711642277.5091758,0,1711642277,508549213,imu1_frame,0,0,0,,0.22520058158080933,0.7328764739169091,0.1323224599695076,-0.628225707,"(0.0, 0.0, 0.0, 0.0, 0.0, 0.0, 0.0, 0.0, 0.0)",-0.000774,0.002216,-0.21693,"(0.0, 0.0, 0.0, 0.0, 0.0, 0.0, 0.0, 0.0, 0.0)",-0.511,-0.879,-9.476,"(0.0, 0.0, 0.0, 0.0, 0.0, 0.0, 0.0, 0.0, 0.0)",0,0,0,,-0.2659,-0.0354,-0.3183,"(0.0, 0.0, 0.0, 0.0, 0.0, 0.0, 0.0, 0.0, 0.0)","$VNYMR,-145.496,-001.769,+000.469,-00.2659,-00.0354,-00.3183,-00.511,-00.879,-09.476,-00.000774,+00.002216,-00.216934*63\r\n'"
1711642277.5342777,0,1711642277,533603429,imu1_frame,0,0,0,,0.32788625727348303,0.6896348214137287,0.22409002115718682,-0.605539493,"(0.0, 0.0, 0.0, 0.0, 0.0, 0.0, 0.0, 0.0, 0.0)",0.001501,0.003459,-0.21613,"(0.0, 0.0, 0.0, 0.0, 0.0, 0.0, 0.0, 0.0, 0.0)",-0.492,-0.884,-9.525,"(0.0, 0.0, 0.0, 0.0, 0.0, 0.0, 0.0, 0.0, 0.0)",0,0,0,,-0.266,-0.0443,-0.3168,"(0.0, 0.0, 0.0, 0.0, 0.0, 0.0, 0.0, 0.0, 0.0)","$VNYMR,-145.806,-001.760,+000.487,-00.2660,-00.0443,-00.3168,-00.492,-00.884,-09.525,+00.001501,+00.003459,-00.216139*60\r\n'"
1711642277.559439,0,1711642277,558811187,imu1_frame,0,0,0,,0.4218604061467393,0.6317995583690794,0.31307267476810274,-0.569954925,"(0.0, 0.0, 0.0, 0.0, 0.0, 0.0, 0.0, 0.0, 0.0)",0.0006,0.00694,-0.21482,"(0.0, 0.0, 0.0, 0.0, 0.0, 0.0, 0.0, 0.0, 0.0)",-0.503,-0.87,-9.657,"(0.0, 0.0, 0.0, 0.0, 0.0, 0.0, 0.0, 0.0, 0.0)",0,0,0,,-0.266,-0.0418,-0.3139,"(0.0, 0.0, 0.0, 0.0, 0.0, 0.0, 0.0, 0.0, 0.0)","$VNYMR,-146.116,-001.748,+000.505,-00.2660,-00.0418,-00.3139,-00.503,-00.870,-09.657,+00.000600,+00.006940,-00.214826*62\r\n'"
1711642277.5858762,0,1711642277,585340976,imu1_frame,0,0,0,,0.5045607132732766,0.5605768397796522,0.3991538329132498,-0.521390747,"(0.0, 0.0, 0.0, 0.0, 0.0, 0.0, 0.0, 0.0, 0.0)",-0.003304,0.009248,-0.21518,"(0.0, 0.0, 0.0, 0.0, 0.0, 0.0, 0.0, 0.0, 0.0)",-0.52,-0.798,-9.629,"(0.0, 0.0, 0.0, 0.0, 0.0, 0.0, 0.0, 0.0, 0.0)",0,0,0,,-0.2673,-0.0443,-0.3169,"(0.0, 0.0, 0.0, 0.0, 0.0, 0.0, 0.0, 0.0, 0.0)","$VNYMR,-146.424,-001.730,+000.519,-00.2673,-00.0443,-00.3169,-00.520,-00.798,-09.629,-00.003304,+00.009248,-00.215185*65\r\n'"
1711642277.6092074,0,1711642277,608554601,imu1_frame,0,0,0,,0.5755920190829065,0.47724990301137393,0.48052409988527534,-0.458282606,"(0.0, 0.0, 0.0, 0.0, 0.0, 0.0, 0.0, 0.0, 0.0)",-0.002773,0.013517,-0.21509,"(0.0, 0.0, 0.0, 0.0, 0.0, 0.0, 0.0, 0.0, 0.0)",-0.5,-0.675,-9.547,"(0.0, 0.0, 0.0, 0.0, 0.0, 0.0, 0.0, 0.0, 0.0)",0,0,0,,-0.2685,-0.0455,-0.314,"(0.0, 0.0, 0.0, 0.0, 0.0, 0.0, 0.0, 0.0, 0.0)","$VNYMR,-146.733,-001.708,+000.528,-00.2685,-00.0455,-00.3140,-00.500,-00.675,-09.547,-00.002773,+00.013517,-00.215098*69\r\n'"
1711642277.6341772,0,1711642277,633572101,imu1_frame,0,0,0,,0.6325439872441072,0.38421621001152895,0.5540081461686657,-0.381236124,"(0.0, 0.0, 0.0, 0.0, 0.0, 0.0, 0.0, 0.0, 0.0)",-0.005254,0.014016,-0.21606,"(0.0, 0.0, 0.0, 0.0, 0.0, 0.0, 0.0, 0.0, 0.0)",-0.53,-0.759,-9.473,"(0.0, 0.0, 0.0, 0.0, 0.0, 0.0, 0.0, 0.0, 0.0)",0,0,0,,-0.2648,-0.0469,-0.3168,"(0.0, 0.0, 0.0, 0.0, 0.0, 0.0, 0.0, 0.0, 0.0)","$VNYMR,-147.044,-001.682,+000.535,-00.2648,-00.0469,-00.3168,-00.530,-00.759,-09.473,-00.005254,+00.014016,-00.216067*69\r\n'"
1711642277.6602461,0,1711642277,659758090,imu1_frame,0,0,0,,0.6735278767238788,0.2854258756801353,0.6158605811815662,-0.292588471,"(0.0, 0.0, 0.0, 0.0, 0.0, 0.0, 0.0, 0.0, 0.0)",-0.002022,0.015621,-0.21931,"(0.0, 0.0, 0.0, 0.0, 0.0, 0.0, 0.0, 0.0, 0.0)",-0.471,-0.702,-9.59,"(0.0, 0.0, 0.0, 0.0, 0.0, 0.0, 0.0, 0.0, 0.0)",0,0,0,,-0.2636,-0.0534,-0.3138,"(0.0, 0.0, 0.0, 0.0, 0.0, 0.0, 0.0, 0.0, 0.0)","$VNYMR,-147.357,-001.653,+000.545,-00.2636,-00.0534,-00.3138,-00.471,-00.702,-09.590,-00.002022,+00.015621,-00.219316*6D\r\n'"
1711642277.6854136,0,1711642277,684797525,imu1_frame,0,0,0,,0.6993105619421184,0.18320203562905532,0.6632124661225758,-0.193780744,"(0.0, 0.0, 0.0, 0.0, 0.0, 0.0, 0.0, 0.0, 0.0)",-0.006777,0.015862,-0.2141,"(0.0, 0.0, 0.0, 0.0, 0.0, 0.0, 0.0, 0.0, 0.0)",-0.432,-0.563,-9.605,"(0.0, 0.0, 0.0, 0.0, 0.0, 0.0, 0.0, 0.0, 0.0)",0,0,0,,-0.266,-0.0443,-0.3096,"(0.0, 0.0, 0.0, 0.0, 0.0, 0.0, 0.0, 0.0, 0.0)","$VNYMR,-147.670,-001.624,+000.555,-00.2660,-00.0443,-00.3096,-00.432,-00.563,-09.605,-00.006777,+00.015862,-00.214108*6C\r\n'"
1711642277.7099273,0,1711642277,708695650,imu1_frame,0,0,0,,0.7105957282014855,0.078529829,0.6938407245367513,-0.086439725,"(0.0, 0.0, 0.0, 0.0, 0.0, 0.0, 0.0, 0.0, 0.0)",-0.011596,0.014358,-0.21488,"(0.0, 0.0, 0.0, 0.0, 0.0, 0.0, 0.0, 0.0, 0.0)",-0.456,-0.699,-9.366,"(0.0, 0.0, 0.0, 0.0, 0.0, 0.0, 0.0, 0.0, 0.0)",0,0,0,,-0.2672,-0.0379,-0.3242,"(0.0, 0.0, 0.0, 0.0, 0.0, 0.0, 0.0, 0.0, 0.0)","$VNYMR,-147.979,-001.597,+000.558,-00.2672,-00.0379,-00.3242,-00.456,-00.699,-09.366,-00.011596,+00.014358,-00.214888*67\r\n'"
1711642277.7345426,0,1711642277,733866930,imu1_frame,0,0,0,,0.7077869457405297,-0.028801066,0.7053163148824463,0.02714837,"(0.0, 0.0, 0.0, 0.0, 0.0, 0.0, 0.0, 0.0, 0.0)",-0.016192,0.011228,-0.21166,"(0.0, 0.0, 0.0, 0.0, 0.0, 0.0, 0.0, 0.0, 0.0)",-0.395,-0.64,-9.228,"(0.0, 0.0, 0.0, 0.0, 0.0, 0.0, 0.0, 0.0, 0.0)",0,0,0,,-0.2648,-0.0508,-0.3182,"(0.0, 0.0, 0.0, 0.0, 0.0, 0.0, 0.0, 0.0, 0.0)","$VNYMR,-148.284,-001.575,+000.550,-00.2648,-00.0508,-00.3182,-00.395,-00.640,-09.228,-00.016192,+00.011228,-00.211668*65\r\n'"
1711642277.7610123,0,1711642277,760691404,imu1_frame,0,0,0,,0.6893154536201579,-0.134365084,0.6976195437797627,0.141835122,"(0.0, 0.0, 0.0, 0.0, 0.0, 0.0, 0.0, 0.0, 0.0)",-0.020559,0.008942,-0.20641,"(0.0, 0.0, 0.0, 0.0, 0.0, 0.0, 0.0, 0.0, 0.0)",-0.423,-0.606,-9.356,"(0.0, 0.0, 0.0, 0.0, 0.0, 0.0, 0.0, 0.0, 0.0)",0,0,0,,-0.2674,-0.0558,-0.3125,"(0.0, 0.0, 0.0, 0.0, 0.0, 0.0, 0.0, 0.0, 0.0)","$VNYMR,-148.584,-001.555,+000.536,-00.2674,-00.0558,-00.3125,-00.423,-00.606,-09.356,-00.020559,+00.008942,-00.206418*6D\r\n'"
1711642277.784364,0,1711642277,783839702,imu1_frame,0,0,0,,0.6553765294982565,-0.235361088,0.6711553501043332,0.254238586,"(0.0, 0.0, 0.0, 0.0, 0.0, 0.0, 0.0, 0.0, 0.0)",-0.013507,0.00873,-0.20833,"(0.0, 0.0, 0.0, 0.0, 0.0, 0.0, 0.0, 0.0, 0.0)",-0.39,-0.706,-9.223,"(0.0, 0.0, 0.0, 0.0, 0.0, 0.0, 0.0, 0.0, 0.0)",0,0,0,,-0.2673,-0.0469,-0.3198,"(0.0, 0.0, 0.0, 0.0, 0.0, 0.0, 0.0, 0.0, 0.0)","$VNYMR,-148.883,-001.536,+000.521,-00.2673,-00.0469,-00.3198,-00.390,-00.706,-09.223,-00.013507,+00.008730,-00.208339*61\r\n'"
1711642277.8088396,0,1711642277,808452606,imu1_frame,0,0,0,,0.6082967384117549,-0.327066867,0.627878483,0.35884669763091537,"(0.0, 0.0, 0.0, 0.0, 0.0, 0.0, 0.0, 0.0, 0.0)",-0.006851,0.011826,-0.2092,"(0.0, 0.0, 0.0, 0.0, 0.0, 0.0, 0.0, 0.0, 0.0)",-0.428,-0.698,-9.22,"(0.0, 0.0, 0.0, 0.0, 0.0, 0.0, 0.0, 0.0, 0.0)",0,0,0,,-0.2661,-0.0533,-0.3154,"(0.0, 0.0, 0.0, 0.0, 0.0, 0.0, 0.0, 0.0, 0.0)","$VNYMR,-149.180,-001.518,+000.512,-00.2661,-00.0533,-00.3154,-00.428,-00.698,-09.220,-00.006851,+00.011826,-00.209201*6B\r\n'"
1711642277.8341236,0,1711642277,833601951,imu1_frame,0,0,0,,0.5505560258289655,-0.407498349,0.5702179796917639,0.45352465616797233,"(0.0, 0.0, 0.0, 0.0, 0.0, 0.0, 0.0, 0.0, 0.0)",-0.005477,0.010435,-0.20746,"(0.0, 0.0, 0.0, 0.0, 0.0, 0.0, 0.0, 0.0, 0.0)",-0.487,-0.594,-9.412,"(0.0, 0.0, 0.0, 0.0, 0.0, 0.0, 0.0, 0.0, 0.0)",0,0,0,,-0.2673,-0.052,-0.3285,"(0.0, 0.0, 0.0, 0.0, 0.0, 0.0, 0.0, 0.0, 0.0)","$VNYMR,-149.477,-001.500,+000.512,-00.2673,-00.0520,-00.3285,-00.487,-00.594,-09.412,-00.005477,+00.010435,-00.207467*60\r\n'"
1711642277.8615556,0,1711642277,859540700,imu1_frame,0,0,0,,0.48453806921640225,-0.475769219,0.5001941038622766,0.537282391,"(0.0, 0.0, 0.0, 0.0, 0.0, 0.0, 0.0, 0.0, 0.0)",-0.001075,0.010116,-0.20879,"(0.0, 0.0, 0.0, 0.0, 0.0, 0.0, 0.0, 0.0, 0.0)",-0.321,-0.469,-9.257,"(0.0, 0.0, 0.0, 0.0, 0.0, 0.0, 0.0, 0.0, 0.0)",0,0,0,,-0.2674,-0.0584,-0.3299,"(0.0, 0.0, 0.0, 0.0, 0.0, 0.0, 0.0, 0.0, 0.0)","$VNYMR,-149.776,-001.481,+000.522,-00.2674,-00.0584,-00.3299,-00.321,-00.469,-09.257,-00.001075,+00.010116,-00.208797*67\r\n'"
1711642277.8885849,0,1711642277,886392593,imu1_frame,0,0,0,,0.411574886,-0.533328262,0.4183635207579365,0.6092118211665032,"(0.0, 0.0, 0.0, 0.0, 0.0, 0.0, 0.0, 0.0, 0.0)",0.003697,0.00843,-0.21076,"(0.0, 0.0, 0.0, 0.0, 0.0, 0.0, 0.0, 0.0, 0.0)",-0.358,-0.489,-9.223,"(0.0, 0.0, 0.0, 0.0, 0.0, 0.0, 0.0, 0.0, 0.0)",0,0,0,,-0.2636,-0.0521,-0.3196,"(0.0, 0.0, 0.0, 0.0, 0.0, 0.0, 0.0, 0.0, 0.0)","$VNYMR,-150.079,-001.463,+000.539,-00.2636,-00.0521,-00.3196,-00.358,-00.489,-09.223,+00.003697,+00.008430,-00.210762*62\r\n'"
1711642277.9100814,0,1711642277,909526586,imu1_frame,0,0,0,,0.33275385716729333,-0.580318323,0.3268292331188738,0.6675988065902007,"(0.0, 0.0, 0.0, 0.0, 0.0, 0.0, 0.0, 0.0, 0.0)",0.004495,0.006548,-0.20836,"(0.0, 0.0, 0.0, 0.0, 0.0, 0.0, 0.0, 0.0, 0.0)",-0.513,-0.636,-9.338,"(0.0, 0.0, 0.0, 0.0, 0.0, 0.0, 0.0, 0.0, 0.0)",0,0,0,,-0.2674,-0.0545,-0.3241,"(0.0, 0.0, 0.0, 0.0, 0.0, 0.0, 0.0, 0.0, 0.0)","$VNYMR,-150.378,-001.447,+000.554,-00.2674,-00.0545,-00.3241,-00.513,-00.636,-09.338,+00.004495,+00.006548,-00.208362*6E\r\n'"
